Folder: MISC_JupyterNotebook/dublin_poster_plots/Tensile Tests - Quenched Samples 20180604/BLPX-M1-Q015-03_20180604

File: specimen.dat
MTS793|MPT|ENU|1|2|.|/|:|1|0|0|A

Data Acquisition						Time:	102.194	s	6/4/2018 3:11:15 PM
Time	MTS 4 Displacement 4	MTS 4 Force 4
s	mm	N
0.114258	0.0002563	88.4236
0.514648	0.0108153	173.341
0.915039	0.02540648	272.711
1.31543	0.0377893	368.1
1.71582	0.0515938	466.888
2.11621	0.0636727	561.28
2.5166	0.077334	661.04
2.91699	0.0898093	754.383
3.31738	0.103435	853.249
3.71777	0.117275	953.881
4.11816	0.130561	1048.7
4.51855	0.145	1147.368
4.91895	0.15817	1245.04
5.31934	0.1701	1337.01
5.71973	0.184342	1436.194
6.12012	0.197732	1531.9
6.52051	0.211594	1629.02
6.9209	0.224519	1727.43
7.32129	0.236672	1823.34
7.72168	0.251886	1921.833
8.12207	0.264049	2015.41
8.52246	0.278056	2111.56
8.92285	0.29119	2209.71
9.32324	0.304842	2303.38
9.72363	0.316888	2397.95
10.124	0.33395	2506.25
10.5244	0.347573	2605.85
10.9248	0.368005	2757.37
11.3252	0.381163	2845.81
11.7256	0.392851	2935.79
12.126	0.405011	3022.29
12.5264	0.417471	3109.74
12.9268	0.431061	3197.36
13.3271	0.443098	3289.71
13.7275	0.456393	3382.59
14.12793	0.468197	3470.4
14.52832	0.48233	3558.17
14.9287	0.494814	3651.33
15.3291	0.508139	3740.56
15.7295	0.522098	3832.38
16.1299	0.53446	3922.29
16.5303	0.547311	4012.44
16.9307	0.55995	4105.519
17.3311	0.57326	4197.38
17.7314	0.587267	4289.86
18.1318	0.59998	4381.36
18.5322	0.614217	4476.27
18.9326	0.627083	4568.66
19.333	0.641158	4661.41
19.7334	0.655216	4760.55
20.1338	0.6673187	4845.11
20.53418	0.681522	4942.17
20.93457	0.69454	5030.14
21.335	0.707284	5122.05
21.7354	0.719982	5212.44
22.1357	0.734609	5305.88
22.5361	0.747818	5394.36
22.9365	0.761747	5487.31
23.3369	0.7753253	5578.29
23.7373	0.788116	5667.53
24.1377	0.801384	5756.876
24.5381	0.8148402	5847.62
24.9385	0.828665	5938.75
25.3389	0.841874	6035.06
25.7393	0.8559674	6125.1
26.1396	0.8687526	6212.77
26.54	0.882006	6305.69
26.94043	0.895318	6390.09
27.34082	0.909984	6482.87
27.7412	0.922036	6569.25
28.1416	0.935754	6658.91
28.542	0.94898	6746.09
28.9424	0.962368	6835.708
29.3428	0.975949	6926.23
29.7432	0.990036	7011.03
30.1436	1.001212	7097.46
30.5439	1.01696	7193.81
30.9443	1.028654	7278.41
31.3447	1.04374	7371.39
31.7451	1.05659	7458.3
32.1455	1.069358	7547.18
32.5459	1.08193	7638.2
32.9463	1.09545	7723.95
33.34668	1.11021	7809.77
33.74707	1.12236	7893.89
34.1475	1.13605	7983.66
34.5479	1.14946	8069.16
34.9482	1.16318	8154.93
35.3486	1.17562	8240.64
35.749	1.18969	8328.36
36.1494	1.20321	8414.8
36.5498	1.21676	8499.06
36.9502	1.23003	8585.7
37.3506	1.24344	8671.45
37.751	1.25664	8758.15
38.1514	1.27056	8845.39
38.5518	1.28287	8932.18
38.9521	1.29612	9016.86
39.3525	1.3098	9102.792
39.75293	1.32306	9186.65
40.15332	1.33614	9276.47
40.5537	1.35029	9363.56
40.9541	1.36456	9448.87
41.3545	1.37708	9534.1
41.7549	1.39034	9615.95
42.1553	1.40396	9702.29
42.5557	1.41692	9783.09
42.9561	1.43053	9871.418
43.3564	1.4432	9954.791
43.7568	1.456815	10039.967
44.1572	1.47072	10121.966
44.5576	1.48323	10204.781
44.958	1.49638	10293.276
45.3584	1.50974	10375.231
45.7588	1.52326	10457.246
46.15918	1.53629	10538.77
46.55957	1.55065	10623.466
46.96	1.56351	10706.129
47.3604	1.57721	10793.922
47.7607	1.59062	10880.318
48.1611	1.604265	10960.983
48.5615	1.61695	11042.152
48.9619	1.63074	11126.582
49.3623	1.64388	11205.692
49.7627	1.65671	11290.14
50.1631	1.67089	11374.267
50.5635	1.68354	11455.983
50.9639	1.69852	11539.137
51.3643	1.71011	11624.783
51.7646	1.72503	11707.286
52.165	1.73747	11790.203
52.56543	1.750797	11870.372
52.96582	1.76365	11951.209
53.3662	1.776278	12031.482
53.7666	1.78958	12107.275
54.167	1.8036	12198.519
54.5674	1.8176	12281.679
54.9678	1.83143	12364.892
55.3682	1.84534	12444.682
55.7686	1.85834	12526.113
56.1689	1.87189	12611.143
56.5693	1.88474	12693.154
56.9697	1.89842	12773.981
57.3701	1.91235	12854.932
57.7705	1.92546	12937.809
58.1709	1.93824	13018.596
58.5713	1.9519	13099.675
58.97168	1.96521	13179.283
59.37207	1.97775	13259.68
59.7725	1.992631	13338.73
60.1729	2.005446	13418.788
60.5732	2.01803	13499.611
60.9736	2.03153	13580.134
61.374	2.04437	13658.154
61.7744	2.05857	13738.313
62.1748	2.0709	13819.341
62.5752	2.08454	13899.449
62.9756	2.09745	13982.375
63.376	2.111855	14060.779
63.7764	2.12359	14137.209
64.1768	2.13818	14219.666
64.5771	2.15129	14300.456
64.9775	2.16428	14379.304
65.37793	2.17831	14459.908
65.77832	2.19141	14542.321
66.1787	2.205214	14623.021
66.5791	2.21898	14700.138
66.9795	2.23185	14770.657
67.3799	2.24463	14856.831
67.7803	2.25808	14937.736
68.1807	2.27148	15020.202
68.5811	2.28451	15094.422
68.9814	2.29886	15170.527
69.3818	2.30978	15250.854
69.7822	2.32411	15326.842
70.1826	2.33776	15406.391
70.583	2.35074	15484.891
70.9834	2.3635	15563.286
71.3838	2.37835	15643.948
71.78418	2.39142	15723.747
72.18457	2.40431	15799.363
72.585	2.41826	15876.996
72.9854	2.43014	15956.1
73.3857	2.44565	16037.3
73.7861	2.45873	16114.144
74.1865	2.47119	16189.099
74.5869	2.48468	16266.632
74.9873	2.49822	16341.927
75.3877	2.51159	16420.156
75.7881	2.52483	16494.008
76.1885	2.53813	16575.568
76.5889	2.55176	16650.645
76.9893	2.56456	16726.449
77.3896	2.57778	16800.721
77.79	2.59151	16876.918
78.19043	2.605617	16957.42
78.59082	2.61796	17030.477
78.9912	2.63171	17107.344
79.3916	2.64511	17186.195
79.792	2.65867	17260.768
80.1924	2.67251	17341.443
80.5928	2.68451	17416.205
80.9932	2.69738	17487.813
81.3936	2.71163	17562.271
81.7939	2.72619	17640.33
82.1943	2.73776	17713.25
82.5947	2.75189	17789.266
82.9951	2.76385	17864.35
83.3955	2.77772	17936.678
83.7959	2.79151	18011.291
84.1963	2.80509	18086.85
84.59668	2.81839	18161.207
84.99707	2.83176	18234.082
85.3975	2.84554	18310.766
85.7979	2.85811	18382.006
86.1982	2.87086	18459.51
86.5986	2.88467	18533.912
86.999	2.8989	18602.445
87.3994	2.91176	18678.252
87.7998	2.92587	18748.496
88.2002	2.93702	18822.689
88.6006	2.95178	18896.145
89.001	2.96556	18969.607
89.4014	2.97852	19037.959
89.8018	2.99117	19111.576
90.2021	3.00559	19185.08
90.6025	3.01712	19255.844
91.00293	3.03084	19328.586
91.40332	3.0446	19405.199
91.8037	3.05883	19478.748
92.2041	3.07188	19547.281
92.6045	3.08575	19621.422
93.0049	3.0981	19692.711
93.4053	3.11125	19766.91
93.8057	3.12615	19838.756
94.2061	3.13951	19910.514
94.6064	3.15248	19986.473
95.0068	3.16588	20051.117
95.4072	3.18041	20124.051
95.8076	3.19319	20193.092
96.208	3.2053	20255.297
96.6084	3.21909	20327.662
97.0088	3.23292	20393.758
97.40918	3.24618	20464.873
97.80957	3.25905	20533.691
98.21	3.27241	20596.115
98.6104	3.2855	20665.557
99.0107	3.29977	20734.242
99.4111	3.312546	20796.59
99.8115	3.32551	20857.654
100.212	3.33887	20921.801
100.6123	3.35156	20981.197
101.0127	3.36539	21037.689
101.413	3.3787	21090.23
101.813	3.39298	21151.627
102.114	3.40233	21185.197