Folder: MISC_JupyterNotebook/dublin_poster_plots/Tensile Tests - Quenched Samples 20180604/BLPX-M1-Q030-03_20180604

File: specimen.dat
MTS793|MPT|ENU|1|2|.|/|:|1|0|0|A

Data Acquisition						Time:	72.2686	s	6/4/2018 3:45:31 PM
Time	MTS 4 Displacement 4	MTS 4 Force 4
s	mm	N
0.114746	-0.00132024	-61.05909
0.415039	0.00917315	-3.27984
0.715332	0.0188857	57.1832
1.015625	0.0287175	119.861
1.315918	0.0385165	182.383
1.61621	0.0495166	245.37
1.9165	0.0584632	309.106
2.2168	0.0677824	372.73
2.51709	0.0789344	436.604
2.81738	0.090003	502.439
3.11768	0.0997841	568.624
3.41797	0.108659	636.445
3.71826	0.119013	701.114
4.01855	0.1288712	766.58
4.31885	0.138879	830.724
4.61914	0.148901	898.268
4.91943	0.158042	962.332
5.21973	0.167999	1024.189
5.52002	0.179282	1085.64
5.82031	0.188598	1148.33
6.12061	0.199035	1213.01
6.4209	0.209296	1279.82
6.72119	0.218499	1341.17
7.02148	0.229022	1404.33
7.32178	0.239971	1469.82
7.62207	0.249377	1533.1
7.92236	0.258744	1593.45
8.22266	0.268567	1656.204
8.52295	0.279751	1716.47
8.82324	0.28947	1778.934
9.12354	0.29934	1836.92
9.42383	0.309178	1897.77
9.72412	0.3197819	1961.42
10.0244	0.330761	2016.36
10.3247	0.339681	2073.39
10.625	0.349221	2130.55
10.9253	0.358644	2195.52
11.2256	0.370577	2262.37
11.5259	0.379089	2319.65
11.8262	0.39176	2389.98
12.1265	0.402996	2467.31
12.4268	0.414559	2529.46
12.7271	0.423661	2587.22
13.0273	0.433061	2643.1
13.3276	0.444403	2701.37
13.62793	0.453857	2752.86
13.9282	0.464043	2813.24
14.2285	0.473139	2872.86
14.5288	0.483054	2931.58
14.8291	0.492916	2985.17
15.1294	0.50219	3048.53
15.4297	0.511912	3102.73
15.72998	0.521719	3162.75
16.0303	0.532436	3224.01
16.3306	0.5426228	3282.665
16.6309	0.551441	3343.15
16.9312	0.560972	3402.85
17.2314	0.571278	3464.27
17.5317	0.581717	3523.929
17.832	0.590876	3584.44
18.1323	0.602251	3641.47
18.4326	0.611666	3701.26
18.73291	0.621086	3759.15
19.0332	0.630739	3822.51
19.3335	0.641742	3882.73
19.6338	0.651789	3939.36
19.9341	0.660542	3997.49
20.2344	0.67046	4057.51
20.5347	0.68194	4116.88
20.835	0.69153	4175.79
21.1353	0.70048	4235.54
21.4355	0.711316	4294.96
21.73584	0.7217437	4358.14
22.0361	0.730845	4417.15
22.3364	0.742209	4477.39
22.6367	0.751364	4537.76
22.937	0.761297	4598.73
23.2373	0.7712543	4655.28
23.5376	0.781754	4718.66
23.8379	0.791553	4779.3
24.1382	0.80218	4842.59
24.4385	0.811034	4899.18
24.73877	0.822124	4962.28
25.0391	0.83116	5017.17
25.3394	0.841463	5078.63
25.6396	0.852308	5135.26
25.9399	0.861782	5195.65
26.2402	0.872272	5260.88
26.5405	0.882992	5323.56
26.84082	0.892806	5384.49
27.1411	0.901181	5447.78
27.4414	0.911677	5508.61
27.7417	0.921863	5573.88
28.042	0.931478	5632.314
28.3423	0.941876	5689.89
28.6426	0.951424	5751.95
28.9429	0.961211	5809.98
29.2432	0.972	5869.6
29.5435	0.9811461	5932.98
29.84375	0.990996	5994.55
30.144	1.00139	6056.147
30.4443	1.01049	6119.01
30.7446	1.02128	6180.3
31.0449	1.03129	6243.7
31.3452	1.04179	6302.74
31.6455	1.05291	6365.32
31.9458	1.06223	6428.3
32.2461	1.07219	6491.85
32.5464	1.08104	6550.98
32.84668	1.0918	6615.374
33.147	1.101622	6679.12
33.4473	1.11256	6742.11
33.7476	1.12179	6800.94
34.0479	1.132068	6863.88
34.3481	1.14159	6922.66
34.6484	1.15277	6988.22
34.94873	1.16261	7049.26
35.249	1.17312	7111.74
35.5493	1.18162	7171.65
35.8496	1.193735	7234.9
36.1499	1.20185	7295.71
36.4502	1.21208	7355.52
36.7505	1.22228	7417.65
37.0508	1.23236	7480.62
37.3511	1.24277	7541.55
37.6514	1.2522	7600.12
37.95166	1.2619	7665.72
38.252	1.27192	7726.04
38.5522	1.28265	7787
38.8525	1.29253	7848.88
39.1528	1.30227	7905.64
39.4531	1.31217	7970.27
39.7534	1.322493	8034.31
40.0537	1.33192	8095.709
40.354	1.34268	8157.7
40.6543	1.35197	8221.53
40.95459	1.3613	8281.792
41.2549	1.3716	8341.61
41.5552	1.381737	8404.17
41.8555	1.391691	8464.43
42.1558	1.40193	8527.68
42.4561	1.41163	8589
42.7563	1.421997	8651.22
43.0566	1.43124	8711.45
43.3569	1.44257	8777.68
43.6572	1.45266	8839.96
43.95752	1.46281	8899.75
44.2578	1.47261	8956.46
44.5581	1.48129	9017.37
44.8584	1.49183	9078.71
45.1587	1.50261	9142.41
45.459	1.51205	9206.65
45.7593	1.5219	9265.41
46.05957	1.53338	9331.22
46.3599	1.54228	9391.27
46.6602	1.55378	9455.04
46.9604	1.56277	9512.59
47.2607	1.57243	9573.94
47.561	1.58266	9633.02
47.8613	1.59253	9691.32
48.1616	1.60203	9751.22
48.4619	1.61198	9806.41
48.7622	1.62261	9872.69
49.0625	1.63262	9934.248
49.3628	1.64381	9983.95
49.6631	1.652649	10044.089
49.9634	1.66395	10098.707
50.2637	1.67297	10162.105
50.564	1.682815	10218.882
50.8643	1.69398	10284.411
51.1646	1.70393	10328.938
51.4648	1.712507	10389.544
51.7651	1.723066	10449.711
52.06543	1.73285	10510.396
52.3657	1.74319	10570.977
52.666	1.75275	10630.061
52.9663	1.76252	10694.351
53.2666	1.77316	10741.341
53.5669	1.78459	10798.5
53.8672	1.793	10856.458
54.16748	1.80293	10903.17
54.4678	1.81289	10964.681
54.7681	1.82264	11023.354
55.0684	1.83296	11083.588
55.3687	1.84274	11143.072
55.6689	1.85367	11205.924
55.9692	1.86315	11266.8
56.2695	1.87359	11329.107
56.5698	1.88311	11387.869
56.8701	1.89219	11445.895
57.17041	1.90234	11504.483
57.4707	1.91264	11561.406
57.771	1.92324	11624.396
58.0713	1.932615	11685.394
58.3716	1.94259	11746.343
58.6719	1.9527	11800.222
58.9722	1.96261	11865.448
59.2725	1.97326	11922.612
59.5728	1.98215	11976.562
59.873	1.99295	12037.027
60.17334	2.003324	12032.057
60.4736	2.0131	12030.195
60.7739	2.02262	12087.873
61.0742	2.03355	12145.314
61.3745	2.0422	12206.198
61.6748	2.053231	12269.052
61.9751	2.06142	12325.697
62.2754	2.07355	12384.406
62.5757	2.08351	12446.095
62.876	2.09338	12504.728
63.17627	2.10294	12566.391
63.4766	2.11212	12618.323
63.7769	2.12273	12680.704
64.0771	2.13345	12738.968
64.3774	2.14289	12801.344
64.6777	2.153	12857.931
64.978	2.16214	12914.413
65.27832	2.17366	12974.799
65.5786	2.18278	13022.348
65.8789	2.19328	13079.521
66.1792	2.20386	13136.479
66.4795	2.21321	13194.907
66.7798	2.223423	13254.991
67.0801	2.2337	13314.568
67.3804	2.2437	13368.466
67.6807	2.25462	13371.954
67.981	2.26511	13429.31
68.28125	2.27404	13488.298
68.5815	2.28293	13543.028
68.8818	2.29459	13601.304
69.1821	2.30342	13661.368
69.4824	2.31376	13719.671
69.7827	2.32395	13758.015
70.083	2.33412	13715.731
70.3833	2.34423	13766.695
70.6836	2.35369	13821.926
70.9839	2.36574	13612.463
71.28418	2.37459	13652.345
71.5845	2.38442	13660.089
71.8848	2.39514	13694.438
72.1851	2.40341	13748.165