Folder: MISC_JupyterNotebook/dublin_poster_plots/Tensile Tests - Quenched Samples 20180604/BLPX-M1-Q045-03_20180604

File: specimen.dat
MTS793|MPT|ENU|1|2|.|/|:|1|0|0|A

Data Acquisition						Time:	62.5288	s	6/4/2018 4:17:50 PM
Time	MTS 4 Displacement 4	MTS 4 Force 4
s	mm	N
0.115234	0.00102818	-12.5763
0.415527	0.0112325	-6.81132
0.71582	0.0212222	-3.2289
1.01611	0.0311136	3.76096
1.31641	0.0416934	11.979
1.6167	0.0506699	19.2464
1.91699	0.0611335	26.7332
2.21729	0.07148385	36.3776
2.51758	0.0811368	47.89587
2.81787	0.0910789	60.4556
3.11816	0.100783	76.8943
3.418457	0.11183	95.3579
3.71875	0.121763	118.241
4.019043	0.13113	142.813
4.31934	0.141114	171.481
4.61963	0.150523	200.602
4.91992	0.160241	235.911
5.22021	0.1698494	271.685
5.52051	0.180107	313.922
5.8208	0.190759	357.774
6.12109	0.201055	401.929
6.42139	0.210398	444.58
6.72168	0.2197504	491.883
7.02197	0.229412	539.766
7.32227	0.240302	583.724
7.62256	0.249746	633.8562
7.92285	0.259593	682.545
8.22314	0.269452	731.543
8.52344	0.280264	783.964
8.82373	0.290161	833.325
9.12402	0.299075	881.648
9.42432	0.30995	929.91
9.72461	0.320977	981.598
10.0249	0.329721	1033.89
10.3252	0.338912	1079.26
10.6255	0.3497988	1128.01
10.9258	0.359964	1179.8
11.2261	0.3696233	1229.098
11.5264	0.37936	1279.43
11.82666	0.389254	1324.074
12.127	0.399527	1374.52
12.4272	0.4100889	1421.715
12.7275	0.419852	1471.08
13.0278	0.430632	1521.58
13.3281	0.440037	1569.86
13.6284	0.449538	1616.86
13.9287	0.45979	1665.6
14.229	0.470075	1711.63
14.5293	0.48025	1761.89
14.82959	0.489986	1804.98
15.1299	0.499639	1850.13
15.4302	0.509802	1896.757
15.7305	0.519514	1946.563
16.0308	0.529683	1991.24
16.3311	0.539771	2042.94
16.6313	0.550112	2091.48
16.9316	0.56074	2136.9
17.2319	0.570527	2184.855
17.5322	0.580478	2233.76
17.83252	0.590366	2282.96
18.1328	0.601754	2330.45
18.4331	0.611731	2376.69
18.7334	0.621203	2427.4
19.0337	0.632972	2485.69
19.334	0.64418	2533.41
19.6343	0.656614	2600.144
19.93457	0.666919	2651.49
20.2349	0.677818	2698.67
20.5352	0.686833	2746.42
20.8354	0.696632	2792.84
21.1357	0.70428	2832.72
21.436	0.713718	2883.03
21.7363	0.724843	2913.66
22.0366	0.734299	2964.58
22.3369	0.743762	3010.77
22.6372	0.753927	3059.46
22.9375	0.763485	3105.58
23.2378	0.773826	3149.55
23.5381	0.783738	3196.99
23.8384	0.7927537	3232.53
24.1387	0.802511	3282.96
24.439	0.812867	3333.231
24.7393	0.822729	3380.61
25.0396	0.832611	3431.48
25.3398	0.843057	3482.86
25.6401	0.852996	3532.44
25.94043	0.862357	3583.65
26.2407	0.872466	3619.28
26.541	0.8818984	3670.439
26.8413	0.892279	3723.03
27.1416	0.902483	3775.93
27.4419	0.91202	3827.127
27.7422	0.922012	3880.83
28.04248	0.933081	3935.83
28.3428	0.942853	3987.98
28.6431	0.952598	4033.25
28.9434	0.961614	4083.71
29.2437	0.97279	4133.39
29.5439	0.982913	4173.95
29.8442	0.994098	4183.33
30.1445	1.00237	4231.82
30.4448	1.01309	4278.74
30.7451	1.022768	4331.69
31.04541	1.03223	4375.05
31.3457	1.04262	4418.97
31.646	1.05314	4468.32
31.9463	1.062	4521.48
32.2466	1.07255	4570.37
32.5469	1.08231	4619.55
32.8472	1.09289	4655.74
33.1475	1.10247	4698.59
33.4478	1.11215	4730.75
33.748	1.123178	4774.91
34.04834	1.13329	4783.46
34.3486	1.14296	4825.93
34.6489	1.15269	4869.43
34.9492	1.16327	4879.37
35.2495	1.17465	4821.03
35.5498	1.18277	4863.89
35.8501	1.1932	4910.52
36.1504	1.2035	4958.14
36.4507	1.21339	4997.27
36.751	1.22489	5009.39
37.05127	1.23286	5035.68
37.3516	1.24381	5079.69
37.6519	1.25498	4860.37
37.9521	1.26528	4905.59
38.2524	1.275146	4964.21
38.5527	1.28844	5013.832
38.853	1.29739	5058.4
39.15332	1.30664	5106.53
39.4536	1.31358	5144.54
39.7539	1.326555	5207.41
40.0542	1.33658	5257.03
40.3545	1.34462	5296.82
40.6548	1.3556	5336.45
40.9551	1.36422	5383.02
41.2554	1.374495	5410.53
41.5557	1.38469	5457.78
41.856	1.3944	5447.54
42.15625	1.40416	5494.05
42.4565	1.41457	5547.97
42.7568	1.42446	5593.98
43.0571	1.4339	5634.38
43.3574	1.44317	5681.09
43.6577	1.45406	5723.89
43.958	1.46421	5715.667
44.2583	1.47374	5757.459
44.5586	1.48385	5803.645
44.8589	1.49314	5851.85
45.15918	1.502955	5902.45
45.4595	1.51349	5946
45.7598	1.523754	5994.38
46.0601	1.53471	6036.188
46.3604	1.54274	6077.51
46.6606	1.55386	6122.04
46.9609	1.5664	5933.95
47.26123	1.57552	5971.37
47.5615	1.58528	6017.062
47.8618	1.59349	6062.53
48.1621	1.60477	6038.81
48.4624	1.61537	5972.54
48.7627	1.627022	5815.04
49.063	1.63673	5844.09
49.3633	1.64508	5882.26
49.6636	1.65699	5738.44
49.9639	1.667	5676.12
50.26416	1.67843	5653.53
50.5645	1.68609	5693.57
50.8647	1.696977	5657.4
51.165	1.70726	5605.12
51.4653	1.71863	5411.63
51.7656	1.72772	5448.37
52.0659	1.73765	5389.604
52.3662	1.7469	5428.96
52.6665	1.75664	5466.39
52.9668	1.766026	5504.22
53.26709	1.77608	5508.18
53.5674	1.787132	5543.85
53.8677	1.79554	5583.77
54.168	1.805079	5622.59
54.4683	1.81711	5525.76
54.7686	1.82638	5563.1
55.0688	1.83607	5585.9
55.3691	1.84477	5625.31
55.6694	1.85481	5662.79
55.9697	1.86529	5700.62
56.27002	1.8741	5737.33
56.5703	1.8836	5774.56
56.8706	1.89415	5813.042
57.1709	1.90423	5805.6
57.4712	1.91369	5840.19
57.7715	1.92354	5879.21
58.0718	1.93351	5918.51
58.37207	1.94313	5947.66
58.6724	1.95359	5982.45
58.9727	1.96558	5802.7
59.2729	1.974839	5839.26
59.5732	1.98492	5865.19
59.8735	1.99479	5898.59
60.1738	2.00343	5933.1
60.4741	2.0141	5866.26
60.7744	2.02464	5880.34
61.0747	2.035	5908.12
61.375	2.04397	5940.918
61.6753	2.05505	5971.83
61.9756	2.06415	5999.21
62.2759	2.07356	6025.57
62.4761	2.08015	6042.36

Data Acquisition						Time:	2.71191	s	6/4/2018 4:18:40 PM
Time	MTS 4 Displacement 4	MTS 4 Force 4
s	mm	N
0.115234	2.08258	289.325
0.215332	2.08467	295.637
0.31543	2.08798	302.244
0.415527	2.09174	308.669
0.515625	2.09469	314.801
0.615723	2.09924	321.9433
0.71582	2.10202	327.856
0.815918	2.10604	334.8251
0.916016	2.10974	341.372
1.01611	2.11245	346.314
1.11621	2.11546	352.494
1.21631	2.11859	359.061
1.31641	2.12224	364.949
1.4165	2.12561	370.724
1.5166	2.12942	375.773
1.6167	2.13276	382.177
1.7168	2.13559	388.061
1.81689	2.13952	394.349
1.91699	2.1421	401.986
2.01709	2.146256	406.708
2.11719	2.14977	412.2749
2.21729	2.1524	418.137
2.31738	2.15609	420.754
2.41748	2.15898	428.425
2.51758	2.16225	434.311
2.61768	2.16624	439.047

Data Acquisition						Time:	6.2207	s	6/4/2018 4:19:00 PM
Time	MTS 4 Displacement 4	MTS 4 Force 4
s	mm	N
0.115234	2.17322	307.297
0.215332	2.17572	312.655
0.31543	2.1778	318.2197
0.415527	2.181509	325.347
0.515625	2.18631	331.337
0.615723	2.18762	336.353
0.71582	2.19227	343.292
0.815918	2.19592	348.276
0.916016	2.19912	353.0209
1.01611	2.20225	359.922
1.11621	2.20463	364.355
1.21631	2.20901	366.976
1.31641	2.21318	372.3624
1.4165	2.2161	377.429
1.5166	2.21868	383.346
1.6167	2.22245	386.326
1.7168	2.22559	393.148
1.81689	2.22998	395.906
1.91699	2.23252	402.097
2.01709	2.23569	405.808
2.11719	2.23971	409.733
2.21729	2.24198	416.539
2.31738	2.24586	420.635
2.41748	2.249351	425.1236
2.51758	2.25327	427.723
2.61768	2.25572	432.2225
2.71777	2.25908	436.98
2.81787	2.26362	441.939
2.91797	2.26625	445.06
3.01807	2.26954	451.004
3.11816	2.27301	354.358
3.21826	2.277863	367.0278
3.31836	2.28034	372.903
3.418457	2.28428	377.776
3.51855	2.28799	383.515
3.61865	2.29052	389.6864
3.71875	2.294013	392.038
3.81885	2.29699	398.515
3.91895	2.30139	403.128
4.019043	2.30425	408.2569
4.11914	2.30712	412.377
4.21924	2.3104	417.953
4.31934	2.31391	420.708
4.41943	2.31702	426.061
4.51953	2.32	430.284
4.61963	2.32387	434.965
4.71973	2.32673	439.172
4.81982	2.33046	443.646
4.91992	2.33352	448.614
5.02002	2.33683	454.386
5.12012	2.33985	457.589
5.22021	2.34367	462.235
5.32031	2.34684	465.211
5.42041	2.34969	470.449
5.52051	2.35268	475.913
5.62061	2.35708	480.315
5.7207	2.360183	483.202
5.8208	2.36281	488.511
5.9209	2.36583	491.659
6.021	2.37022	495.049
6.12109	2.37359	497.737

Data Acquisition						Time:	6.78955	s	6/4/2018 4:19:18 PM
Time	MTS 4 Displacement 4	MTS 4 Force 4
s	mm	N
0.114746	2.37788	317.973
0.214844	2.38032	322.601
0.314941	2.38352	327.744
0.415039	2.387342	336.671
0.515137	2.39063	344.428
0.615234	2.39491	350.5459
0.715332	2.39948	355.783
0.81543	2.40137	360.669
0.915527	2.40549	366.431
1.015625	2.4087	372.456
1.11572	2.41114	377.103
1.21582	2.41494	381.79
1.315918	2.41967	386.517
1.41602	2.42133	391.329
1.51611	2.42492	396.27
1.61621	2.42885	400.36
1.71631	2.431366	406.44
1.81641	2.43521	410.87
1.9165	2.43758	414.134
2.0166	2.44241	418.788
2.1167	2.4452	422.639
2.2168	2.449131	427.667
2.31689	2.452311	432.008
2.41699	2.45496	436.4621
2.51709	2.45803	440.269
2.61719	2.46196	445.415
2.71729	2.46532	448.762
2.81738	2.468127	453.737
2.91748	2.47197	458.685
3.01758	2.47516	462.689
3.11768	2.477777	467.175
3.21777	2.481401	471.049
3.31787	2.48565	476.214
3.41797	2.48893	479.818
3.51807	2.49151	480.991
3.61816	2.49627	368.743
3.71826	2.50286	378.897
3.81836	2.50431	384.102
3.918457	2.50828	388.22
4.01855	2.51121	394.642
4.11865	2.51452	399.558
4.21875	2.51816	404.568
4.31885	2.52059	408.349
4.41895	2.52371	414.499
4.519043	2.52681	418.246
4.61914	2.53036	424.851
4.71924	2.53373	428.059
4.81934	2.53654	432.068
4.91943	2.53987	437.083
5.01953	2.54447	441.07
5.11963	2.54694	445.6438
5.21973	2.54887	450.119
5.31982	2.55221	454.465
5.41992	2.55595	460.432
5.52002	2.55997	465.224
5.62012	2.5624	469.213
5.72021	2.56563	474.094
5.82031	2.56926	476.828
5.92041	2.57343	476.764
6.02051	2.57545	482.295
6.12061	2.57919	486.356
6.2207	2.58213	492.155
6.3208	2.58694	495.855
6.4209	2.589047	500.595
6.521	2.592185	505.406
6.62109	2.59558	510.085
6.72119	2.59855	514.247