Folder: MISC_JupyterNotebook/dublin_poster_plots/Tensile Tests - Quenched Samples 20180604/BLPX-M1-Q045-06_20180604

File: specimen.dat
MTS793|MPT|ENU|1|2|.|/|:|1|0|0|A

Data Acquisition						Time:	64.9702	s	6/4/2018 4:29:09 PM
Time	MTS 4 Displacement 4	MTS 4 Force 4
s	mm	N
0.114258	-6.25849e-05	-23.2515
0.414551	0.0077188	-3.7889
0.714844	0.0174582	29.3714
1.01514	0.0273496	60.4001
1.31543	0.03682375	89.5549
1.61572	0.0470459	122.466
1.91602	0.0570238	158.371
2.21631	0.0670791	186.36
2.5166	0.0776112	217.232
2.81689	0.0869334	244.831
3.11719	0.0963211	279.799
3.41748	0.108141	318.628
3.71777	0.115955	359.314
4.01807	0.1275152	404.211
4.31836	0.136456	446.513
4.61865	0.146049	495.225
4.91895	0.156474	543.126
5.21924	0.1654923	586.816
5.51953	0.175887	630.78
5.81982	0.185838	681.754
6.12012	0.196248	724.571
6.42041	0.206262	777.019
6.7207	0.215888	830.307
7.021	0.225765	870.772
7.32129	0.235504	926.369
7.621582	0.246516	980.625
7.921875	0.255978	1032.71
8.222168	0.265649	1082.24
8.52246	0.276643	1135.71
8.82275	0.286341	1190.81
9.12305	0.295913	1244.07
9.42334	0.30683	1297.01
9.72363	0.316116	1350.48
10.0239	0.325954	1402.5
10.3242	0.335884	1453.04
10.6245	0.347045	1506.635
10.9248	0.3565222	1561.16
11.2251	0.3662765	1617.45
11.5254	0.376201	1667.5
11.8257	0.386271	1722.64
12.126	0.395381	1774.97
12.42627	0.406012	1822.49
12.7266	0.416589	1876.82
13.0269	0.426689	1932.25
13.3271	0.43726	1980.68
13.6274	0.447416	2031.13
13.9277	0.455862	2085.51
14.228	0.467056	2138.58
14.52832	0.4778	2194.626
14.8286	0.487909	2252.61
15.1289	0.499606	2309.73
15.4292	0.509459	2365.19
15.7295	0.520143	2419.25
16.0298	0.529671	2467.72
16.3301	0.539729	2516.67
16.6304	0.548893	2568.14
16.9307	0.5615592	2629.63
17.231	0.573435	2694.46
17.53125	0.592124	2793.313
17.8315	0.602487	2838.97
18.1318	0.609961	2885.05
18.4321	0.62018	2932.29
18.7324	0.628489	2975.28
19.0327	0.637951	3024.938
19.333	0.646859	3072.18
19.6333	0.65484	3119.66
19.9336	0.665405	3168.47
20.2339	0.673819	3220.53
20.53418	0.683776	3266.39
20.8345	0.692925	3318.3
21.1348	0.702724	3367
21.4351	0.711289	3412.22
21.7354	0.71983	3463.34
22.0356	0.730234	3518.3
22.3359	0.7424742	3585.86
22.63623	0.752148	3642.7
22.9365	0.761652	3691.42
23.2368	0.770295	3739.68
23.5371	0.780219	3792.89
23.8374	0.790831	3845.17
24.1377	0.800076	3902.41
24.438	0.811058	3958.17
24.7383	0.820965	4007.4
25.0386	0.830394	4057.75
25.3389	0.840518	4113.92
25.63916	0.85012	4166.48
25.9395	0.860658	4224.88
26.2397	0.870892	4277.88
26.54	0.879732	4328.72
26.8403	0.890496	4384.48
27.1406	0.900254	4440.34
27.4409	0.911039	4500.35
27.7412	0.921103	4553.47
28.0415	0.9300679	4608.58
28.3418	0.939861	4664.42
28.64209	0.951251	4724.72
28.9424	0.961265	4778.957
29.2427	0.970626	4834.88
29.543	0.980911	4892.84
29.8433	0.990555	4948.21
30.1436	1.00143	5004.66
30.4438	1.01158	5061.26
30.7441	1.02063	5116.48
31.0444	1.03101	5171.66
31.3447	1.04191	5228.07
31.64502	1.05132	5282.73
31.9453	1.05999	5338.28
32.2456	1.072067	5389.49
32.5459	1.08221	5447.51
32.8462	1.09261	5511.13
33.1465	1.10106	5563.75
33.4468	1.11156	5621.67
33.74707	1.1214	5677.67
34.0474	1.13144	5736.34
34.3477	1.14024	5789.44
34.6479	1.1514	5849.24
34.9482	1.16109	5905.84
35.2485	1.17178	5962.77
35.5488	1.18076	6017.45
35.8491	1.19019	6076.8
36.1494	1.20161	6134.57
36.4497	1.2117	6192.36
36.75	1.22194	6250.55
37.0503	1.23147	6309.05
37.3506	1.24117	6363.15
37.6509	1.25082	6420.083
37.9512	1.26108	6475.51
38.2515	1.27163	6510.82
38.5518	1.28143	6568.61
38.8521	1.29231	6623.16
39.1523	1.30129	6678.94
39.4526	1.3112	6735.29
39.75293	1.322189	6793.08
40.0532	1.33249	6850.15
40.3535	1.34236	6907.29
40.6538	1.35191	6967.05
40.9541	1.361528	7024.51
41.2544	1.3721	7085.76
41.5547	1.38223	7144.16
41.85498	1.3918	7200.12
42.1553	1.40249	7258.31
42.4556	1.41262	7313.66
42.7559	1.42052	7364.27
43.0562	1.4328	7420.65
43.3564	1.44312	7482.78
43.6567	1.45247	7543.54
43.957	1.46253	7597.42
44.2573	1.473	7655.24
44.5576	1.4824	7709.457
44.85791	1.49263	7763.75
45.1582	1.50352	7823.5
45.4585	1.51414	7836.46
45.7588	1.52278	7884.94
46.0591	1.53336	7937.32
46.3594	1.542449	7990.85
46.6597	1.55186	8047.5
46.96	1.56221	8096.08
47.2603	1.57388	8160.39
47.5605	1.58548	8114.81
47.86084	1.59706	8073.68
48.1611	1.61008	7875.72
48.4614	1.61961	7923.43
48.7617	1.62919	7940.61
49.062	1.63677	7989.98
49.3623	1.65077	7779.09
49.6626	1.660639	7761.26
49.9629	1.6693	7810.291
50.2632	1.67943	7826.335
50.5635	1.6869	7878.38
50.86377	1.69714	7931.5
51.1641	1.70565	7986.792
51.4644	1.71566	8039.31
51.7646	1.7243	8090.375
52.0649	1.73374	8101.75
52.3652	1.7442	8159.58
52.6655	1.75379	8214.26
52.96582	1.76318	8266.36
53.2661	1.77234	8324.4
53.5664	1.78271	8378.14
53.8667	1.79319	8429.73
54.167	1.80222	8482.32
54.4673	1.81338	8461.36
54.7676	1.82288	8515.87
55.0679	1.83286	8567.51
55.3682	1.843068	8620.29
55.6685	1.85246	8674.41
55.96875	1.86155	8729.06
56.269	1.87155	8775.15
56.5693	1.88161	8829.39
56.8696	1.89163	8882.92
57.1699	1.90078	8936.86
57.4702	1.91262	8990.1
57.7705	1.92244	9043.08
58.0708	1.93246	9091.72
58.3711	1.94179	9140.05
58.6714	1.95067	9182.56
58.97168	1.96261	9234.751
59.272	1.97277	9282.24
59.5723	1.98393	9217.82
59.8726	1.99465	9270.37
60.1729	2.0042	9259.18
60.4731	2.013412	9306.292
60.7734	2.02284	9355.05
61.07373	2.03388	9260.77
61.374	2.04491	9236.18
61.6743	2.0542	9282.9
61.9746	2.06361	9328.8
62.2749	2.09315	7485.76
62.5752	2.09857	7499.1
62.8755	2.10623	7530.86
63.1758	2.11532	7568.84
63.4761	2.12549	7597.02
63.7764	2.13376	7634.98
64.07666	2.14328	7674.52
64.377	2.15163	7706.77
64.6772	2.16037	7739.04
64.8774	2.17571	7027.31