Folder: MISC_JupyterNotebook/dublin_poster_plots/Tensile Tests - Quenched Samples 20180604/BLPX-M1-Q015-06_20180604

File: specimen.dat
MTS793|MPT|ENU|1|2|.|/|:|1|0|0|A

Data Acquisition						Time:	102.517	s	6/4/2018 3:22:02 PM
Time	MTS 4 Displacement 4	MTS 4 Force 4
s	mm	N
0.114746	-2.08616e-05	-32.7879
0.515137	0.0137895	61.4826
0.915527	0.0262767	158.279
1.315918	0.0385582	255.3356
1.71631	0.0521362	350.078
2.1167	0.0655115	454.077
2.51709	0.0792593	549.594
2.91748	0.0913411	650.588
3.31787	0.104848	755.172
3.71826	0.118941	850.155
4.11865	0.13158	947.833
4.519043	0.144544	1047.26
4.91943	0.157154	1147.05
5.31982	0.17176	1244.97
5.72021	0.184911	1344.45
6.12061	0.197691	1444.56
6.521	0.211105	1542.16
6.92139	0.224721	1642.96
7.32178	0.239754	1738.18
7.722168	0.252131	1839.87
8.12256	0.264028	1934.62
8.52295	0.278386	2038.48
8.92334	0.292239	2132.61
9.32373	0.305083	2229.62
9.72412	0.318673	2331.04
10.1245	0.332078	2435.96
10.5249	0.346774	2532.959
10.9253	0.365669	2665.32
11.3257	0.378472	2761.81
11.7261	0.390548	2854.53
12.1265	0.404951	2946.92
12.5269	0.4165858	3040.44
12.9272	0.429329	3131.96
13.3276	0.442788	3227
13.728	0.454971	3318.38
14.1284	0.468698	3412.3
14.5288	0.480998	3507.62
14.9292	0.495633	3600.37
15.32959	0.507829	3693.01
15.72998	0.522047	3790.88
16.1304	0.535479	3885.73
16.5308	0.548267	3980.46
16.9312	0.56138	4072.99
17.3315	0.5743891	4169.32
17.7319	0.588363	4264.29
18.1323	0.602448	4358.8
18.5327	0.615084	4454.79
18.9331	0.628787	4549.71
19.3335	0.642118	4644.47
19.7339	0.655788	4734.84
20.1343	0.669092	4832.561
20.5347	0.682911	4927
20.9351	0.6965369	5029.98
21.3354	0.708777	5119.67
21.73584	0.720811	5207.44
22.13623	0.736132	5301.51
22.5366	0.749627	5393.53
22.937	0.762671	5489.64
23.3374	0.775787	5580.02
23.7378	0.788936	5671.35
24.1382	0.802159	5764.74
24.5386	0.816435	5856.61
24.939	0.828138	5952.45
25.3394	0.842446	6043.91
25.7397	0.8554399	6135.37
26.1401	0.869125	6229.92
26.5405	0.882888	6325.87
26.9409	0.897083	6415.85
27.3413	0.909898	6508.53
27.7417	0.923231	6605.97
28.14209	0.93663	6696.08
28.54248	0.950009	6783.57
28.9429	0.963494	6875.03
29.3433	0.97518	6964.47
29.7437	0.988838	7056.4
30.144	1.00255	7149.13
30.5444	1.01634	7241.24
30.9448	1.02891	7330.79
31.3452	1.04291	7422.05
31.7456	1.05643	7515.519
32.146	1.06972	7610.8
32.5464	1.0849	7696.31
32.9468	1.09605	7789.37
33.3472	1.10923	7879.082
33.7476	1.12304	7970.66
34.1479	1.13625	8059.27
34.54834	1.14901	8149.42
34.94873	1.16228	8239.45
35.3491	1.17637	8332.34
35.7495	1.19133	8425.76
36.1499	1.20386	8511.96
36.5503	1.21565	8599.25
36.9507	1.22972	8692.93
37.3511	1.24304	8780.09
37.7515	1.25707	8871.876
38.1519	1.27099	8959.76
38.5522	1.28343	9049.97
38.9526	1.29763	9139.21
39.353	1.31117	9228.35
39.7534	1.32358	9317.77
40.1538	1.33645	9409.72
40.5542	1.35057	9497.63
40.95459	1.3633	9587.13
41.35498	1.37731	9675.88
41.7554	1.39	9763.43
42.1558	1.402995	9852.47
42.5562	1.41666	9942.68
42.9565	1.43017	10031.545
43.3569	1.44312	10115.077
43.7573	1.45671	10205.134
44.1577	1.46942	10293.548
44.5581	1.48339	10380.15
44.9585	1.49671	10470.737
45.3589	1.50981	10556.898
45.7593	1.52243	10647.106
46.1597	1.53652	10736.189
46.5601	1.54939	10820.826
46.9604	1.56313	10906.221
47.36084	1.57633	10997.733
47.76123	1.59173	11083.887
48.1616	1.60389	11170.036
48.562	1.61702	11257.618
48.9624	1.6304	11343.502
49.3628	1.643768	11429.964
49.7632	1.65654	11522.175
50.1636	1.66997	11608.721
50.564	1.6836	11697.355
50.9644	1.69624	11781.352
51.3647	1.71043	11870.191
51.7651	1.72298	11957.17
52.1655	1.73567	12041.663
52.5659	1.7504	12130.651
52.9663	1.76262	12213.303
53.3667	1.77709	12304.687
53.76709	1.79093	12388.467
54.16748	1.8037	12473.7
54.5679	1.81634	12558.298
54.9683	1.83021	12645.771
55.3687	1.84254	12730.972
55.769	1.85737	12819.7
56.1694	1.87025	12904.075
56.5698	1.884678	12994.254
56.9702	1.896888	13078.815
57.3706	1.910612	13164.521
57.771	1.92351	13251.01
58.1714	1.93615	13335.798
58.5718	1.95014	13422.877
58.9722	1.96457	13507.271
59.3726	1.97672	13589.882
59.7729	1.99068	13678.121
60.17334	2.00427	13766.312
60.57373	2.0168	13846.133
60.9741	2.030319	13932.566
61.3745	2.04306	14016.871
61.7749	2.05761	14105.719
62.1753	2.07049	14183.98
62.5757	2.08306	14268.235
62.9761	2.09799	14358.723
63.3765	2.11043	14441.152
63.7769	2.12319	14521.717
64.1772	2.137342	14608.572
64.5776	2.15088	14689.641
64.978	2.16402	14778.234
65.3784	2.17628	14859.37
65.7788	2.18976	14941.102
66.1792	2.20456	15028.881
66.57959	2.21736	15109.552
66.97998	2.22982	15195.347
67.3804	2.24494	15275.724
67.7808	2.25747	15362.577
68.1812	2.27011	15445.022
68.5815	2.28483	15533.407
68.9819	2.29746	15612.988
69.3823	2.31023	15697.912
69.7827	2.32371	15783.317
70.1831	2.33683	15864.294
70.5835	2.35077	15945.691
70.9839	2.36476	16030.251
71.3843	2.37743	16115.021
71.7847	2.3913	16198.803
72.1851	2.40519	16282.246
72.5854	2.41727	16363.533
72.98584	2.43036	16448.74
73.38623	2.44514	16529.744
73.7866	2.45866	16615.063
74.187	2.47146	16692.256
74.5874	2.48398	16773.15
74.9878	2.49806	16858.623
75.3882	2.51037	16938.691
75.7886	2.52463	17022.934
76.189	2.53882	17106.336
76.5894	2.55057	17185.5
76.9897	2.56321	17266.541
77.3901	2.57724	17345.9
77.7905	2.59057	17429.404
78.1909	2.60437	17513.518
78.5913	2.61742	17594.977
78.9917	2.63045	17668.213
79.39209	2.64415	17757.422
79.79248	2.65816	17838.461
80.1929	2.67101	17916.256
80.5933	2.68403	17999.422
80.9937	2.69733	18080.752
81.394	2.71036	18161.141
81.7944	2.7243	18246.316
82.1948	2.73898	18328.818
82.5952	2.75017	18409.559
82.9956	2.76413	18485.367
83.396	2.776608	18568.256
83.7964	2.79131	18652.141
84.1968	2.80427	18730.344
84.5972	2.816093	18808.703
84.9976	2.83096	18889.855
85.3979	2.84431	18971.949
85.79834	2.85854	19051.367
86.19873	2.87031	19130.162
86.5991	2.88421	19208.211
86.9995	2.89769	19290.938
87.3999	2.91084	19367.279
87.8003	2.924469	19449.82
88.2007	2.93835	19530.154
88.6011	2.95108	19613.307
89.0015	2.964741	19689.213
89.4019	2.97765	19768.313
89.8022	2.99194	19848.299
90.2026	3.00518	19925.213
90.603	3.01777	20004.789
91.0034	3.03092	20082.451
91.4038	3.04444	20165.279
91.8042	3.05699	20242.727
92.20459	3.0711	20319.121
92.60498	3.08408	20395.211
93.0054	3.09848	20479.477
93.4058	3.11151	20553.555
93.8062	3.12367	20630.092
94.2065	3.13854	20712.117
94.6069	3.15068	20788.254
95.0073	3.16368	20866.125
95.4077	3.17803	20944.07
95.8081	3.19122	21021.51
96.2085	3.20444	21095.203
96.6089	3.21697	21172.504
97.0093	3.231266	21259.994
97.4097	3.24638	21331.043
97.8101	3.25761	21409.783
98.2104	3.27093	21487.195
98.61084	3.28441	21563.264
99.01123	3.29783	21639.906
99.4116	3.31033	21717.865
99.812	3.32522	21792
100.2124	3.33756	21864.896
100.613	3.35076	21942.785
101.013	3.36417	22017.412
101.414	3.37822	22092.867
101.814	3.391078	22169.221
102.214	3.40402	22241.531
102.515	3.41488	22298.438

Data Acquisition						Time:	106.102	s	6/4/2018 3:22:06 PM
Time	MTS 4 Displacement 4	MTS 4 Force 4
s	mm	N
102.615	3.41855	22318.072
102.715	3.4217	22337.928
102.815	3.42499	22357.838
102.915	3.428659	22376.918
103.015	3.4309	22393.805
103.115	3.43399	22413.451
103.215	3.43784	22429.957
103.315	3.44067	22449.328
103.416	3.44528	22463.719
103.516	3.44691	22483.139
103.616	3.45133	22499.592
103.716	3.45425	22519.025
103.816	3.45754	22537.713
103.916	3.46137	22555.711
104.016	3.46513	22571.912
104.116	3.46752	22589.393
104.216	3.47161	22610.154
104.316	3.47381	22624.887
104.4165	3.47846	22643.389
104.5166	3.48167	22661.104
104.6167	3.48492	22677.742
104.7168	3.48793	22695.08
104.817	3.49184	22712.244
104.917	3.49519	22730.193
105.017	3.49789	22746.654
105.117	3.50137	22766.375
105.217	3.50544	22785.568
105.317	3.50844	22801.281
105.417	3.51156	22818.162
105.518	3.51478	22833.574
105.618	3.51772	22848.85
105.718	3.52175	22868.26
105.818	3.52522	22882.707
105.918	3.52924	22897.275
106.018	3.53231	22848.697