Folder: MISC_JupyterNotebook/dublin_poster_plots/Tensile Tests - Quenched Samples 20180604/BLPX-M1-Q015-04_20180604

File: specimen.dat
MTS793|MPT|ENU|1|2|.|/|:|1|0|0|A

Data Acquisition						Time:	102.545	s	6/4/2018 2:10:54 PM
Time	MTS 4 Displacement 4	MTS 4 Force 4
s	mm	N
0.117676	0.000718236	14.1517
0.518066	0.00978708	85.81662
0.918457	0.0237316	188.549
1.31885	0.036642	285.53
1.71924	0.0510573	388.853
2.11963	0.0638485	486.2113
2.52002	0.0770956	582.129
2.92041	0.0897825	680.843
3.3208	0.103247	781.377
3.72119	0.115675	878.07
4.121582	0.129342	978.104
4.52197	0.141758	1075.27
4.92236	0.154868	1175.84
5.32275	0.168723	1273.88
5.72314	0.182828	1373.21
6.12354	0.19531	1472.17
6.52393	0.208044	1571.66
6.92432	0.223073	1671.81
7.324707	0.237328	1771.55
7.7251	0.249323	1868.48
8.12549	0.263432	1967.76
8.52588	0.276583	2066.092
8.92627	0.290328	2164.43
9.32666	0.302902	2263.29
9.72705	0.318187	2368.2
10.1274	0.33119	2458.91
10.5278	0.344104	2555.02
10.9282	0.35817	2651.06
11.3286	0.372073	2751.26
11.729	0.384992	2847.69
12.1294	0.39877	2942.99
12.5298	0.411528	3037.62
12.9302	0.424808	3129.646
13.3306	0.437778	3227.71
13.731	0.450572	3321.41
14.1313	0.464892	3416.35
14.5317	0.479406	3511.15
14.9321	0.491211	3607.64
15.33252	0.504959	3696.05
15.73291	0.518176	3789.68
16.1333	0.532153	3886.1
16.5337	0.544405	3972.54
16.9341	0.558534	4074.75
17.3345	0.571668	4164.22
17.7349	0.58611	4265.59
18.1353	0.5987525	4358.48
18.5356	0.611618	4448.47
18.936	0.624868	4543.33
19.3364	0.636989	4632.13
19.7368	0.651962	4725.86
20.1372	0.664791	4814.51
20.5376	0.679132	4915.36
20.938	0.691402	5002.145
21.3384	0.704899	5094.51
21.73877	0.7184118	5190.05
22.13916	0.732633	5285.707
22.5396	0.745493	5374.61
22.9399	0.758106	5458.48
23.3403	0.772178	5554.48
23.7407	0.785807	5650.93
24.1411	0.798213	5738.68
24.5415	0.81158	5832.32
24.9419	0.825572	5919.33
25.3423	0.838783	6010.73
25.7427	0.852418	6099.49
26.1431	0.865775	6197.66
26.5435	0.878984	6285.33
26.9438	0.892764	6374.42
27.3442	0.906059	6462.01
27.7446	0.918797	6555.82
28.14502	0.933221	6649.68
28.54541	0.946397	6735.25
28.9458	0.959128	6827.52
29.3462	0.972068	6918.54
29.7466	0.98615	7004.28
30.147	0.999591	7094.73
30.5474	1.01655	7212.73
30.9478	1.03286	7323.6
31.3481	1.04606	7412.73
31.7485	1.05798	7494.56
32.1489	1.07016	7574.53
32.5493	1.0837	7659.21
32.9497	1.09571	7741.74
33.3501	1.1095	7830.17
33.7505	1.12191	7916.22
34.1509	1.13621	8013.99
34.55127	1.16667	8231.14
34.95166	1.18085	8310.51
35.3521	1.19231	8381.74
35.7524	1.204282	8455.92
36.1528	1.21575	8533.55
36.5532	1.228404	8609.875
36.9536	1.24087	8690.57
37.354	1.25218	8771.72
37.7544	1.26396	8852.73
38.1548	1.27779	8932.78
38.5552	1.2897	9014.59
38.9556	1.30087	9098.19
39.356	1.31492	9180.53
39.7563	1.32831	9266.31
40.1567	1.34082	9352.67
40.5571	1.35337	9437.22
40.95752	1.36644	9519.99
41.35791	1.37911	9602.24
41.7583	1.3923	9688.43
42.1587	1.40499	9772.99
42.5591	1.41731	9856.12
42.9595	1.431638	9943.68
43.3599	1.44501	10025.422
43.7603	1.45684	10110.973
44.1606	1.47027	10193.198
44.561	1.48309	10279.864
44.9614	1.49577	10363.406
45.3618	1.50975	10448.985
45.7622	1.52308	10532.762
46.1626	1.53548	10618.062
46.563	1.5487	10701.89
46.9634	1.56131	10784.829
47.36377	1.57461	10867.174
47.76416	1.58756	10952.004
48.1646	1.60148	11036.817
48.5649	1.61523	11122.432
48.9653	1.6289	11207.287
49.3657	1.6424	11297.404
49.7661	1.65453	11380.656
50.1665	1.66716	11461.192
50.5669	1.68151	11554.002
50.9673	1.69435	11633.008
51.3677	1.70839	11718.57
51.7681	1.72073	11800.406
52.1685	1.7342	11887.941
52.5688	1.74851	11968.357
52.9692	1.76173	12057.963
53.3696	1.77507	12138.93
53.77002	1.78656	12224.935
54.17041	1.80126	12309.211
54.5708	1.81462	12394.647
54.9712	1.82816	12479.469
55.3716	1.84115	12565.873
55.772	1.85477	12648.563
56.1724	1.86897	12732.923
56.5728	1.88048	12817.604
56.9731	1.89315	12898
57.3735	1.90866	12986.617
57.7739	1.92138	13067.199
58.1743	1.935178	13151.679
58.5747	1.94879	13238.05
58.9751	1.963	13316.039
59.3755	1.97505	13406.195
59.7759	1.99053	13490.241
60.17627	2.00263	13572.956
60.57666	2.01526	13656.278
60.9771	2.02756	13739.924
61.3774	2.04235	13823.754
61.7778	2.05598	13902.505
62.1782	2.06875	13986.878
62.5786	2.08302	14074.867
62.979	2.09596	14155.696
63.3794	2.10969	14238.109
63.7798	2.12266	14320.089
64.1802	2.13488	14402.208
64.5806	2.14997	14490.473
64.981	2.162689	14570.868
65.3813	2.17717	14654.129
65.7817	2.18953	14737.473
66.1821	2.20236	14814.643
66.58252	2.21588	14898.192
66.98291	2.22928	14980.484
67.3833	2.242413	15059.517
67.7837	2.25725	15145.367
68.1841	2.269444	15223.374
68.5845	2.28358	15309.917
68.9849	2.29663	15391.777
69.3853	2.31004	15476.539
69.7856	2.32268	15558.295
70.186	2.33592	15641.521
70.5864	2.350235	15718.708
70.9868	2.36377	15803.498
71.3872	2.37658	15882.813
71.7876	2.38996	15965.527
72.188	2.40191	16044.098
72.5884	2.41687	16129.738
72.98877	2.43031	16210.159
73.38916	2.44482	16295.246
73.7896	2.45723	16371.324
74.1899	2.47104	16454.66
74.5903	2.48456	16530.924
74.9907	2.497381	16613.119
75.3911	2.51131	16696.018
75.7915	2.52389	16775.027
76.1919	2.53607	16855.346
76.5923	2.5502	16938.398
76.9927	2.56435	17029.732
77.3931	2.5788	17108.52
77.7935	2.59075	17181.566
78.1938	2.60418	17260.871
78.5942	2.61778	17339.691
78.9946	2.63246	17436.939
79.39502	2.64401	17507.26
79.79541	2.6576	17581.682
80.1958	2.66891	17650.525
80.5962	2.68313	17736.244
80.9966	2.69641	17818.881
81.397	2.711895	17909.527
81.7974	2.72481	17990.031
82.1978	2.73785	18065.516
82.5981	2.75088	18139.049
82.9985	2.76417	18227.754
83.3989	2.77953	18309.416
83.7993	2.79152	18384.445
84.1997	2.80474	18460.195
84.6001	2.818	18540.484
85.0005	2.83059	18619.416
85.4009	2.8449	18697.209
85.80127	2.85623	18776.348
86.20166	2.87181	18858.631
86.6021	2.88449	18932.305
87.0024	2.89801	19011.355
87.4028	2.91131	19088.447
87.8032	2.92453	19166.963
88.2036	2.936	19246.178
88.604	2.95061	19325.072
89.0044	2.9651	19406.211
89.4048	2.976501	19481.744
89.8052	2.99072	19556.111
90.2056	3.00483	19635.609
90.606	3.01766	19719.307
91.0063	3.03106	19791.148
91.4067	3.045851	19870.465
91.8071	3.05786	19946.879
92.20752	3.070873	20026.369
92.60791	3.08518	20103.395
93.0083	3.09747	20179.592
93.4087	3.11136	20257.664
93.8091	3.12514	20335.068
94.2095	3.13949	20421.275
94.6099	3.15241	20498.004
95.0103	3.16535	20569.895
95.4106	3.179	20645.785
95.811	3.19187	20724.027
96.2114	3.2051	20796.848
96.6118	3.21839	20871.971
97.0122	3.23271	20950.154
97.4126	3.24573	21023.852
97.813	3.25686	21100.775
98.2134	3.27248	21180.82
98.61377	3.28422	21255.475
99.01416	3.29828	21330.906
99.4146	3.31193	21408.551
99.8149	3.32489	21482.855
100.215	3.33777	21555.896
100.616	3.35137	21627.533
101.016	3.36723	21726.602
101.4165	3.38035	21798.711
101.817	3.39296	21863.463
102.217	3.40505	21931.854
102.518	3.41568	21986.49

Data Acquisition						Time:	106.143	s	6/4/2018 2:10:58 PM
Time	MTS 4 Displacement 4	MTS 4 Force 4
s	mm	N
102.618	3.41804	22004.291
102.718	3.42106	22024.174
102.818	3.42451	22041.596
102.918	3.42892	22058.176
103.018	3.4309	22076.254
103.118	3.43477	22093.471
103.218	3.43768	22113.563
103.318	3.441453	22132.945
103.418	3.44433	22151.137
103.519	3.44865	22171.959
103.619	3.45116	22190.67
103.719	3.4551	22207.387
103.819	3.45839	22226.295
103.919	3.46126	22243.84
104.019	3.46443	22260.713
104.119	3.46801	22277.902
104.219	3.47043	22295.814
104.319	3.47467	22315.123
104.419	3.47719	22332.289
104.52	3.48071	22349.24
104.62	3.4847	22369.455
104.72	3.48768	22389.682
104.82	3.49077	22409.057
104.92	3.49542	22425.143
105.02	3.49808	22443.949
105.12	3.50052	22461.215
105.22	3.50494	22477.02
105.32	3.50769	22494.174
105.42	3.51081	22510.014
105.521	3.5146	22527.592
105.621	3.51818	22541.584
105.7207	3.51948	22557.014
105.8208	3.52451	22575.191
105.9209	3.52823	22595.053
106.021	3.53193	22538.15
106.121	3.53602	22470.467