Folder: MISC_JupyterNotebook/dublin_poster_plots/Tensile Tests - Quenched Samples 20180604/BLPX-M1-Q045-04_20180604

File: specimen.dat
MTS793|MPT|ENU|1|2|.|/|:|1|0|0|A

Data Acquisition						Time:	57.90332	s	6/4/2018 4:22:17 PM
Time	MTS 4 Displacement 4	MTS 4 Force 4
s	mm	N
0.114746	-0.00118613	-14.4084
0.314941	0.00459552	-8.81087
0.515137	0.0119179	-2.43271
0.715332	0.0177383	9.94969
0.915527	0.025171	23.4237
1.11572	0.031212	38.7677
1.315918	0.0376552	56.3499
1.51611	0.0448942	77.8178
1.71631	0.0503391	99.9474
1.9165	0.0572622	126.691
2.1167	0.06351769	155.912
2.31689	0.0703305	183.175
2.51709	0.0783592	214.2364
2.71729	0.0831604	242.553
2.91748	0.0894606	275.015
3.11768	0.0974387	309.387
3.31787	0.1032114	339.86
3.51807	0.109598	376.139
3.71826	0.115317	411.356
3.918457	0.122714	448.321
4.11865	0.129449	481.985
4.31885	0.136542	518.504
4.519043	0.143388	553.507
4.71924	0.149357	590.862
4.91943	0.156364	626.3186
5.11963	0.163338	666.141
5.31982	0.169936	701.958
5.52002	0.176305	739.182
5.72021	0.1832962	777.569
5.92041	0.193432	831.437
6.12061	0.19998	862.408
6.3208	0.204808	893.603
6.521	0.210884	928.853
6.72119	0.217691	962.437
6.92139	0.223464	997.62
7.121582	0.229907	1034.4
7.32178	0.236326	1072.05
7.52197	0.242609	1107.35
7.722168	0.249827	1144.63
7.92236	0.256491	1180.17
8.12256	0.263476	1213.69
8.32275	0.269309	1248.94
8.52295	0.276434	1289.94
8.72314	0.283673	1325.57
8.92334	0.288948	1360.98
9.12354	0.296628	1395.07
9.32373	0.304797	1433.99
9.52393	0.309429	1467.55
9.72412	0.3174752	1504.137
9.92432	0.322738	1539.82
10.1245	0.330502	1576.885
10.3247	0.338143	1615.47
10.5249	0.3444761	1653.11
10.7251	0.349951	1689.2
10.9253	0.357175	1725.76
11.1255	0.363785	1756.85
11.3257	0.370792	1795.71
11.5259	0.3777	1829.85
11.7261	0.383395	1861.18
11.92627	0.390312	1899.5
12.1265	0.397894	1934.56
12.32666	0.404271	1968.63
12.5269	0.411853	2010.74
12.7271	0.41756	2047.34
12.9272	0.424191	2078.63
13.1274	0.432369	2113.47
13.3276	0.437775	2147.82
13.5278	0.444654	2183.81
13.728	0.450128	2221.23
13.9282	0.457335	2260
14.1284	0.4640311	2295.35
14.3286	0.470477	2334.4
14.5288	0.477937	2372.01
14.729	0.484347	2407.39
14.9292	0.4927367	2445.54
15.1294	0.499442	2477.61
15.32959	0.505644	2509.15
15.5298	0.512069	2546.69
15.72998	0.518203	2582
15.9302	0.5258292	2622.16
16.1304	0.533935	2661.91
16.3306	0.539002	2700.62
16.5308	0.546771	2733.5
16.731	0.553167	2775.06
16.9312	0.563276	2827.39
17.1313	0.570032	2870.98
17.3315	0.583658	2945.49
17.5317	0.590953	2982.21
17.7319	0.597227	3014.415
17.9321	0.603798	3045.5
18.1323	0.6089747	3076.03
18.33252	0.614947	3109.17
18.5327	0.6210953	3140.47
18.73291	0.627699	3171.02
18.9331	0.633162	3205.91
19.1333	0.6390214	3240.42
19.3335	0.64539	3276.45
19.5337	0.6511271	3309.69
19.7339	0.658071	3345.13
19.9341	0.664535	3379.34
20.1343	0.671035	3415.46
20.3345	0.678015	3451.15
20.5347	0.682858	3483.04
20.7349	0.68917	3519.01
20.9351	0.696155	3556.51
21.1353	0.703189	3594.34
21.3354	0.709152	3627.24
21.5356	0.715756	3662.62
21.73584	0.722313	3698.82
21.936	0.72816	3731.86
22.13623	0.735089	3769.26
22.3364	0.740561	3803.57
22.5366	0.748461	3841.77
22.7368	0.754547	3878.01
22.937	0.760677	3914.69
23.1372	0.768015	3950.42
23.3374	0.774673	3989.06
23.5376	0.781545	4024.65
23.7378	0.788024	4061.52
23.938	0.794083	4097.8
24.1382	0.800866	4136.123
24.3384	0.80725	4173.05
24.5386	0.814289	4203.66
24.73877	0.820315	4242.1
24.939	0.826919	4277.293
25.13916	0.833437	4315.21
25.3394	0.840655	4346.853
25.5396	0.8476615	4382.73
25.7397	0.853553	4419.82
25.9399	0.860453	4459.1
26.1401	0.866428	4496.95
26.3403	0.873843	4534.25
26.5405	0.879791	4571.79
26.7407	0.888446	4609.61
26.9409	0.894302	4644.98
27.1411	0.900376	4684.21
27.3413	0.906438	4722.833
27.5415	0.913674	4761.34
27.7417	0.920174	4797.72
27.9419	0.928262	4838.52
28.14209	0.933197	4875.59
28.3423	0.940764	4913.8
28.54248	0.947624	4951.37
28.7427	0.953576	4988.81
28.9429	0.961369	5025.95
29.1431	0.967258	5062.17
29.3433	0.9752661	5094.58
29.5435	0.980863	5130.917
29.7437	0.988016	5172.86
29.9438	0.9952575	5215.03
30.144	1.00186	5253.13
30.3442	1.00857	5289.07
30.5444	1.01499	5327.32
30.7446	1.02138	5363.418
30.9448	1.02792	5388.12
31.14502	1.03459	5423.48
31.3452	1.04039	5458.56
31.54541	1.04733	5495.05
31.7456	1.05372	5530.375
31.9458	1.06009	5568.76
32.146	1.06806	5603.19
32.3462	1.07456	5641.72
32.5464	1.08085	5675.43
32.7466	1.08826	5716.42
32.9468	1.09456	5754.47
33.147	1.1007	5791.61
33.3472	1.10808	5831.72
33.5474	1.11411	5865.55
33.7476	1.12085	5903.6
33.9478	1.12778	5941.25
34.1479	1.13384	5978.15
34.3481	1.14103	6014.07
34.54834	1.14716	6045.46
34.7485	1.15511	6085.48
34.94873	1.161322	6101.32
35.1489	1.168254	6136.86
35.3491	1.17501	6173.41
35.5493	1.18061	6211.03
35.7495	1.18834	6249.8
35.9497	1.19444	6288.14
36.1499	1.2008	6328.38
36.3501	1.20869	6361.51
36.5503	1.21552	6395.83
36.7505	1.22132	6431.75
36.9507	1.22796	6469.751
37.1509	1.23451	6508.96
37.3511	1.24181	6543.55
37.55127	1.2481	6580.623
37.7515	1.25503	6619.23
37.95166	1.26241	6656.647
38.1519	1.2685	6693.07
38.3521	1.27447	6728.96
38.5522	1.28154	6760.79
38.7524	1.28873	6798.54
38.9526	1.29637	6825.16
39.1528	1.30079	6863.86
39.353	1.30793	6905.71
39.5532	1.31514	6942.93
39.7534	1.32242	6983.93
39.9536	1.32865	7021.49
40.1538	1.33523	7054.42
40.354	1.34343	7011.55
40.5542	1.35052	6980.48
40.7544	1.35832	6988.66
40.95459	1.365447	7022.71
41.1548	1.37033	7055.55
41.35498	1.37604	7088.5
41.5552	1.3834	7124.38
41.7554	1.38896	7154.65
41.9556	1.39472	7191.29
42.1558	1.40211	7226.65
42.356	1.4095	7265.09
42.5562	1.41538	7297.92
42.7563	1.422599	7333.63
42.9565	1.42807	7369.3
43.1567	1.43645	7357.47
43.3569	1.44299	7385.6
43.5571	1.44838	7421.55
43.7573	1.455304	7431.41
43.95752	1.46333	7467.74
44.1577	1.46957	7501.39
44.35791	1.475957	7536.76
44.5581	1.48294	7572.58
44.7583	1.48801	7609.73
44.9585	1.49477	7647.93
45.1587	1.50232	7683.6
45.3589	1.50957	7722.42
45.5591	1.51639	7755.333
45.7593	1.5219	7793.92
45.9595	1.5287	7831.71
46.1597	1.53501	7866.27
46.3599	1.54218	7897.459
46.5601	1.54895	7933.23
46.7603	1.55561	7972.29
46.9604	1.56262	8007.6
47.1606	1.568085	8043.37
47.36084	1.57578	8074.2
47.561	1.58366	8066.59
47.76123	1.59186	7952.76
47.9614	1.60037	7908.54
48.1616	1.605916	7938.98
48.3618	1.61172	7962.84
48.562	1.61932	7916.63
48.7622	1.625666	7932.8
48.9624	1.63546	7950.94
49.1626	1.64064	7966.66
49.3628	1.64755	7942.97
49.563	1.65427	7884.11
49.7632	1.66368	7643.04
49.9634	1.66898	7676.15
50.1636	1.67478	7706.96
50.36377	1.68114	7731.36
50.564	1.68686	7766.28
50.76416	1.69344	7801.69
50.9644	1.69927	7832.1
51.1646	1.70445	7865.74
51.3647	1.71321	7908.68
51.5649	1.719898	7944.16
51.7651	1.72709	7979.44
51.9653	1.73282	8013.39
52.1655	1.73987	8040.42
52.3657	1.74515	8073.57
52.5659	1.75288	7981.94
52.7661	1.75962	8016.43
52.9663	1.76529	8048.68
53.1665	1.77264	8079.06
53.3667	1.77846	8104.041
53.5669	1.78425	8131.1
53.76709	1.79116	8165.86
53.9673	1.797089	8176.42
54.16748	1.803422	8209.73
54.3677	1.809749	8241.31
54.5679	1.81521	8274.4
54.7681	1.82149	8298.51
54.9683	1.82937	8332.99
55.1685	1.83864	8059.83
55.3687	1.84644	8055.85
55.5688	1.8549	7922.81
55.769	1.86156	7954.29
55.9692	1.86782	7891.79
56.1694	1.87447	7918.16
56.3696	1.87984	7941.73
56.5698	1.88942	7299.77
56.77002	1.90381	5548.75
56.9702	1.90678	5557.75
57.17041	1.912874	5577.98
57.3706	1.91953	5597.89
57.5708	1.92507	5618.49
57.771	1.93177	5569.76
57.8711	1.93641	5566.53