Folder: MISC_JupyterNotebook/dublin_poster_plots/Tensile Tests - Quenched Samples 20180604/BLPX-M1-Q030-04_20180604

File: specimen.dat
MTS793|MPT|ENU|1|2|.|/|:|1|0|0|A

Data Acquisition						Time:	82.0386	s	6/4/2018 3:50:49 PM
Time	MTS 4 Displacement 4	MTS 4 Force 4
s	mm	N
0.11377	-0.0013262	-45.9288
0.4140625	0.00986755	24.7384
0.714355	0.0195891	87.7784
1.01465	0.0284523	157.314
1.31494	0.0394642	224.668
1.61523	0.047785	294.127
1.91553	0.057134	365.489
2.21582	0.0674635	435.623
2.51611	0.0780404	503.68
2.81641	0.0883043	576.5
3.1167	0.0974685	645.594
3.41699	0.107566	719.073
3.71729	0.116131	789.115
4.01758	0.126916	861.546
4.31787	0.137606	931.38
4.61816	0.149024	999.665
4.918457	0.157085	1068.73
5.21875	0.168064	1139.33
5.519043	0.1768887	1208.39
5.81934	0.187385	1276.22
6.11963	0.197896	1347.93
6.41992	0.207049	1415.95
6.72021	0.217512	1483.63
7.02051	0.226977	1552.77
7.3208	0.237334	1618.079
7.62109	0.246704	1690.09
7.92139	0.256851	1755.38
8.22168	0.26812	1825.625
8.52197	0.27816	1893.63
8.82227	0.287795	1960.84
9.12256	0.298285	2024.69
9.42285	0.307277	2092.25
9.72314	0.316304	2157.11
10.0234	0.328103	2224.23
10.32373	0.338554	2297.42
10.624	0.3485918	2364.6
10.9243	0.358841	2431.82
11.2246	0.373012	2527.81
11.5249	0.38313	2597.91
11.8252	0.3941983	2660.88
12.1255	0.403464	2724.05
12.4258	0.414339	2785.54
12.7261	0.422961	2849.501
13.0264	0.4327178	2909.835
13.32666	0.443026	2972.03
13.627	0.453374	3034.623
13.9272	0.462657	3098.71
14.2275	0.4713	3161.26
14.5278	0.4811883	3226.58
14.8281	0.491765	3288.17
15.1284	0.501612	3346.36
15.4287	0.511256	3413.57
15.729	0.5210191	3478.03
16.0293	0.531274	3540.56
16.32959	0.54186	3602.269
16.6299	0.5503267	3670.127
16.9302	0.560415	3733.22
17.2305	0.573301	3810.37
17.5308	0.581753	3868.86
17.8311	0.592035	3929.27
18.1313	0.60105	3991.23
18.4316	0.610811	4052.47
18.7319	0.620928	4116.65
19.0322	0.632083	4184.95
19.33252	0.6413132	4247.67
19.6328	0.651225	4310.11
19.9331	0.661361	4371.59
20.2334	0.670972	4436.84
20.5337	0.6812036	4498.8
20.834	0.691554	4561.39
21.1343	0.700361	4625.12
21.43457	0.711182	4691.41
21.7349	0.721532	4754.45
22.0352	0.7312268	4815.82
22.3354	0.741148	4882.47
22.6357	0.751656	4943.68
22.936	0.760478	5006.61
23.2363	0.771397	5069.1
23.5366	0.780758	5131.34
23.8369	0.791317	5193.29
24.1372	0.800723	5254.61
24.4375	0.81121	5318.13
24.7378	0.820971	5379.3
25.0381	0.831211	5435.91
25.3384	0.84196	5504.06
25.6387	0.850689	5565.46
25.939	0.861526	5630.94
26.2393	0.87148	5696.99
26.5396	0.882131	5758.1
26.8398	0.891417	5820.13
27.1401	0.901735	5879.29
27.44043	0.911751	5944.041
27.7407	0.920942	6003.61
28.041	0.930482	6067.022
28.3413	0.941622	6131.8
28.6416	0.9511441	6195.82
28.9419	0.961119	6258.27
29.2422	0.9716779	6319.87
29.54248	0.981548	6380.54
29.8428	0.99248	6446.43
30.1431	1.00082	6507.6
30.4434	1.01175	6572.79
30.7437	1.022169	6631.7
31.0439	1.0316	6695.49
31.3442	1.041171	6760.07
31.6445	1.05135	6821.13
31.9448	1.06235	6882.543
32.2451	1.07252	6947.08
32.54541	1.0814	7005.71
32.8457	1.09202	7068.57
33.146	1.10209	7133.19
33.4463	1.111719	7197.56
33.7466	1.12195	7255.94
34.0469	1.13213	7313.35
34.3472	1.14153	7378.793
34.6475	1.15254	7445.23
34.9478	1.16172	7508.41
35.248	1.17247	7567.24
35.54834	1.18284	7632.395
35.8486	1.19182	7693.479
36.1489	1.20242	7757.88
36.4492	1.21238	7818.58
36.7495	1.22267	7880.2
37.0498	1.23267	7945.21
37.3501	1.24337	8010.21
37.6504	1.25372	8069.78
37.9507	1.26185	8131.59
38.251	1.273489	8198.48
38.55127	1.28213	8257.87
38.8516	1.29295	8321.34
39.1519	1.30227	8379.19
39.4521	1.31324	8439.873
39.7524	1.32296	8505.53
40.0527	1.33376	8568.14
40.353	1.34334	8632.12
40.65332	1.35418	8697.19
40.9536	1.36507	8772.55
41.2539	1.37594	8835.26
41.5542	1.38501	8893.07
41.8545	1.39391	8948.83
42.1548	1.40381	9012.11
42.4551	1.41329	9072
42.7554	1.42328	9133.84
43.0557	1.43443	9191.55
43.356	1.44262	9251.51
43.65625	1.45325	9317.53
43.9565	1.46308	9376.49
44.2568	1.47289	9435.2
44.5571	1.481691	9497.3
44.8574	1.49335	9566.42
45.1577	1.503247	9628.32
45.458	1.5128	9689.53
45.7583	1.52349	9750.98
46.0586	1.53238	9809.74
46.3589	1.54228	9872.19
46.65918	1.5522	9933.47
46.9595	1.56324	9997.32
47.2598	1.57232	10059.819
47.5601	1.58279	10122.884
47.8604	1.59161	10181.13
48.1606	1.60306	10248.521
48.4609	1.61283	10313.059
48.76123	1.6232	10375.54
49.0615	1.63368	10432.351
49.3618	1.642856	10493.742
49.6621	1.65299	10555.672
49.9624	1.66307	10619.809
50.2627	1.67299	10674.521
50.563	1.68277	10741
50.8633	1.69354	10803.895
51.1636	1.70383	10866.252
51.4639	1.71314	10929.709
51.76416	1.72341	10990.627
52.0645	1.73338	11050.468
52.3647	1.7428	11112.461
52.665	1.75385	11173.654
52.9653	1.76304	11234.691
53.2656	1.77322	11294.104
53.5659	1.78219	11356.368
53.8662	1.79262	11416.326
54.1665	1.80334	11477.206
54.4668	1.81269	11541.879
54.76709	1.82213	11600.994
55.0674	1.83167	11660.165
55.3677	1.84287	11723.059
55.668	1.85313	11782.697
55.9683	1.86265	11843.784
56.2686	1.87229	11905.847
56.5688	1.88356	11968.313
56.8691	1.89348	12032.18
57.1694	1.90302	12089.254
57.4697	1.9132	12146.133
57.77002	1.92228	12209.555
58.0703	1.93295	12272.225
58.3706	1.94348	12330.713
58.6709	1.95246	12392.467
58.9712	1.96266	12454.017
59.2715	1.97302	12513.458
59.5718	1.98308	12575.331
59.87207	1.99269	12635.63
60.1724	2.00353	12695.589
60.4727	2.013278	12759.083
60.7729	2.022624	12819.331
61.0732	2.03211	12876.176
61.3735	2.042398	12936.337
61.6738	2.05252	13003.643
61.9741	2.06428	13061.487
62.2744	2.07261	13117.869
62.5747	2.08246	13180.181
62.875	2.09352	13242.256
63.1753	2.10263	13303.425
63.4756	2.11262	13361.903
63.7759	2.12425	13422.23
64.0762	2.13367	13483.443
64.3765	2.14348	13544.474
64.6768	2.15307	13601.168
64.9771	2.16373	13663.487
65.2773	2.17287	13721.72
65.5776	2.18387	13785.101
65.87793	2.19396	13841.746
66.1782	2.20464	13899.855
66.4785	2.21406	13960.201
66.7788	2.22383	14019.714
67.0791	2.2342	14078.563
67.3794	2.24447	14143.217
67.6797	2.2534	14201.095
67.97998	2.2632	14257.469
68.2803	2.27381	14317.659
68.5806	2.28311	14376.522
68.8809	2.29377	14434.774
69.1812	2.30329	14493.21
69.4814	2.31318	14552.756
69.7817	2.32328	14615.553
70.082	2.33387	14672.369
70.3823	2.34431	14733.616
70.6826	2.35417	14793.514
70.98291	2.36447	14853.868
71.2832	2.37302	14912.331
71.5835	2.38329	14971.101
71.8838	2.39358	15029.597
72.1841	2.40345	15089.863
72.4844	2.41408	15150.03
72.7847	2.42361	15207.674
73.085	2.43386	15258.604
73.3853	2.44369	15313.537
73.6855	2.45446	15383.224
73.98584	2.46439	15435.988
74.2861	2.4739	15491.272
74.5864	2.48432	15549.253
74.8867	2.49443	15604.339
75.187	2.50408	15667.31
75.4873	2.51471	15626.8
75.7876	2.52352	15679.023
76.0879	2.53486	15733.053
76.3882	2.54481	15791.092
76.6885	2.55448	15844.344
76.98877	2.56412	15904.225
77.2891	2.57449	15958.313
77.5894	2.5838	16015.435
77.8896	2.59446	16071.596
78.1899	2.60449	16130.773
78.4902	2.61292	16183.237
78.7905	2.62444	16242.588
79.09082	2.63408	16299.078
79.3911	2.64399	16356.68
79.6914	2.65437	16416.078
79.9917	2.66368	16447.795
80.292	2.67469	16500.682
80.5923	2.685	16460.984
80.8926	2.69493	16517.318
81.1929	2.70487	16562.619
81.4932	2.71377	16617.863
81.7935	2.7276	16358.294
81.9937	2.734071	16350.738