Folder: MISC_JupyterNotebook/dublin_poster_plots/Tensile Tests - Quenched Samples 20180604/BLPX-M1-Q015-01_20180604

File: specimen.dat
MTS793|MPT|ENU|1|2|.|/|:|1|0|0|A

Data Acquisition						Time:	97.146	s	6/4/2018 2:43:20 PM
Time	MTS 4 Displacement 4	MTS 4 Force 4
s	mm	N
0.114746	0.000569224	-99.428
0.515137	0.0120729	-6.03469
0.915527	0.0264555	97.74649
1.315918	0.03913343	200.9511
1.71631	0.051868	301.943
2.1167	0.0650495	404.181
2.51709	0.07828176	512.016
2.91748	0.0910133	615.974
3.31787	0.105765	713.0976
3.71826	0.118247	821.4212
4.11865	0.130412	924.905
4.519043	0.144559	1029.32
4.91943	0.158665	1133.15
5.31982	0.17097	1237.7
5.72021	0.185081	1342.01
6.12061	0.197491	1441.85
6.521	0.211024	1548.34
6.92139	0.224343	1648.97
7.32178	0.237688	1752.46
7.722168	0.251314	1854.79
8.12256	0.264007	1956.97
8.52295	0.27788	2064.21
8.92334	0.291994	2167.04
9.32373	0.3049165	2267.584
9.72412	0.31774	2368.14
10.1245	0.331685	2469.87
10.5249	0.345054	2575.53
10.9253	0.358081	2674.52
11.3257	0.372133	2779.959
11.7261	0.3852874	2881.06
12.1265	0.399163	2985.71
12.5269	0.412789	3090.488
12.9272	0.425491	3188.62
13.3276	0.444484	3334.97
13.728	0.4578352	3433.04
14.1284	0.471336	3528.71
14.5288	0.482994	3617.91
14.9292	0.496161	3717.54
15.32959	0.509599	3814.35
15.72998	0.5212307	3911.16
16.1304	0.534713	4008.82
16.5308	0.548676	4105.42
16.9312	0.561914	4201.11
17.3315	0.575167	4303.61
17.7319	0.588468	4401
18.1323	0.600883	4501.76
18.5327	0.614309	4597.07
18.9331	0.6275624	4697.78
19.3335	0.640941	4794.55
19.7339	0.654653	4894.54
20.1343	0.667483	4991.25
20.5347	0.6807	5092.78
20.9351	0.694296	5191.91
21.3354	0.707531	5288.89
21.73584	0.72147	5385.1
22.13623	0.734749	5484.57
22.5366	0.747803	5582.41
22.937	0.760624	5681.01
23.3374	0.774768	5778.92
23.7378	0.789106	5874.43
24.1382	0.800717	5970.4
24.5386	0.815549	6070.58
24.939	0.828442	6166.13
25.3394	0.840706	6264.55
25.7397	0.854531	6360.5
26.1401	0.868148	6458.11
26.5405	0.882244	6557.15
26.9409	0.895882	6649.34
27.3413	0.908402	6748.38
27.7417	0.921544	6845.63
28.14209	0.936392	6942.15
28.54248	0.947967	7034.77
28.9429	0.962299	7134.66
29.3433	0.9760946	7233.52
29.7437	0.988671	7326.75
30.144	1.00208	7422.32
30.5444	1.01676	7516.61
30.9448	1.02868	7614.24
31.3452	1.0415	7710.74
31.7456	1.05526	7808.16
32.146	1.0689	7902.8
32.5464	1.08177	7996.86
32.9468	1.09453	8091.88
33.3472	1.10845	8186.2
33.7476	1.12314	8289.39
34.1479	1.136905	8379.49
34.54834	1.14879	8473.7
34.94873	1.163736	8573.34
35.3491	1.17641	8661.2
35.7495	1.19037	8762.55
36.1499	1.20373	8853.01
36.5503	1.216	8944.44
36.9507	1.22908	9034.665
37.3511	1.24266	9131.19
37.7515	1.256901	9224.69
38.1519	1.26857	9318.12
38.5522	1.28191	9412.22
38.9526	1.29667	9508.89
39.353	1.30939	9600.53
39.7534	1.32246	9694.084
40.1538	1.33553	9785.73
40.5542	1.34953	9880.02
40.95459	1.36213	9977.44
41.35498	1.376611	10071.631
41.7554	1.38964	10165.543
42.1558	1.40294	10258.276
42.5562	1.417011	10349.724
42.9565	1.42934	10439.302
43.3569	1.44283	10535.216
43.7573	1.45601	10622.104
44.1577	1.4689	10715.934
44.5581	1.48408	10810.793
44.9585	1.49594	10900.335
45.3589	1.50834	10990.516
45.7593	1.52297	11086.309
46.1597	1.53605	11176.632
46.5601	1.55094	11266.328
46.9604	1.56206	11360.06
47.36084	1.57625	11453.19
47.76123	1.589635	11546.38
48.1616	1.60243	11636.31
48.562	1.615715	11728.723
48.9624	1.6307	11821.044
49.3628	1.64247	11910.633
49.7632	1.656729	12003.008
50.1636	1.66969	12093.399
50.564	1.68224	12185.008
50.9644	1.69679	12276.713
51.3647	1.70996	12372.983
51.7651	1.72244	12461.407
52.1655	1.73552	12552.875
52.5659	1.74931	12646.857
52.9663	1.76317	12732.808
53.3667	1.77606	12824.117
53.76709	1.78935	12915.682
54.16748	1.80394	13006.204
54.5679	1.81584	13095.904
54.9683	1.82913	13185.044
55.3687	1.84396	13277.294
55.769	1.85699	13368.166
56.1694	1.87047	13456.479
56.5698	1.88176	13543.219
56.9702	1.89661	13634.673
57.3706	1.90958	13724.906
57.771	1.92348	13816.148
58.1714	1.93702	13905.749
58.5718	1.95012	13994.836
58.9722	1.96341	14085.898
59.3726	1.976952	14177.272
59.7729	1.98975	14267.687
60.17334	2.00336	14356.945
60.57373	2.01682	14445.176
60.9741	2.02968	14533.163
61.3745	2.04278	14624.484
61.7749	2.055922	14714.465
62.1753	2.06913	14800.786
62.5757	2.084002	14889.637
62.9761	2.09637	14978.475
63.3765	2.10957	15066
63.7769	2.12262	15156.676
64.1772	2.13669	15246.767
64.5776	2.150321	15333.603
64.978	2.1631	15420.977
65.3784	2.17748	15514.844
65.7788	2.189821	15600.89
66.1792	2.20262	15686.938
66.57959	2.216351	15774.146
66.97998	2.22925	15863.605
67.3804	2.24429	15951.683
67.7808	2.257493	16043.314
68.1812	2.27012	16130.638
68.5815	2.28391	16211.075
68.9819	2.29664	16305.48
69.3823	2.30989	16397.166
69.7827	2.323875	16481.813
70.1831	2.3377	16564.973
70.5835	2.35044	16657.109
70.9839	2.363029	16743.564
71.3843	2.37648	16833.07
71.7847	2.3906	16920.873
72.1851	2.40447	17010.248
72.5854	2.41716	17094.221
72.98584	2.4306	17181.648
73.38623	2.44441	17267.92
73.7866	2.45658	17355.92
74.187	2.47047	17444.65
74.5874	2.48349	17531.303
74.9878	2.49724	17617.574
75.3882	2.510777	17697.98
75.7886	2.5229	17789.832
76.189	2.53737	17876.27
76.5894	2.55041	17959.32
76.9897	2.56429	18045.74
77.3901	2.57748	18132.414
77.7905	2.5908	18219.441
78.1909	2.60353	18307.564
78.5913	2.61728	18391.951
78.9917	2.62932	18473.301
79.39209	2.64333	18562.477
79.79248	2.6563	18648.795
80.1929	2.67168	18734.543
80.5933	2.68362	18821.717
80.9937	2.69629	18904.176
81.394	2.71061	18992.906
81.7944	2.72354	19072.121
82.1948	2.73652	19159.959
82.5952	2.75033	19245.074
82.9956	2.76363	19330.17
83.396	2.77832	19422.707
83.7964	2.79151	19475.535
84.1968	2.80326	19556.109
84.5972	2.816865	19644.143
84.9976	2.83108	19727.781
85.3979	2.843684	19812.471
85.79834	2.85736	19898.523
86.19873	2.8709	19983.094
86.5991	2.88444	20065.877
86.9995	2.89729	20146.674
87.3999	2.91013	20234.768
87.8003	2.92461	20319.699
88.2007	2.93754	20398.385
88.6011	2.95076	20484.354
89.0015	2.96342	20567.428
89.4019	2.97869	20656.074
89.8022	2.990061	20733.85
90.2026	3.00373	20814.414
90.603	3.01738	20896.938
91.0034	3.031081	20985.289
91.4038	3.04357	21064.686
91.8042	3.05668	21143.695
92.20459	3.07044	21227.504
92.60498	3.08446	21308.637
93.0054	3.09762	21389.027
93.4058	3.11167	21400.924
93.8062	3.12501	21482.219
94.2065	3.13727	21557.576
94.6069	3.150454	21636.275
95.0073	3.16475	21716.26
95.4077	3.17766	21794.84
95.8081	3.191787	21875.688
96.2085	3.20439	21956.777
96.6089	3.21769	22035.488
97.0093	3.2318	22114.58
97.1094	3.23469	22049.77