Folder: MISC_JupyterNotebook/dublin_poster_plots/Tensile Tests - Quenched Samples 20180604/BLPX-M1-Q030-02_20180604

File: specimen.dat
MTS793|MPT|ENU|1|2|.|/|:|1|0|0|A

Data Acquisition						Time:	70.437	s	6/4/2018 3:25:56 PM
Time	MTS 4 Displacement 4	MTS 4 Force 4
s	mm	N
0.114746	-0.0017643	-28.132
0.415039	0.00985265	11.08367
0.715332	0.0196785	50.14222
1.015625	0.02925396	97.41
1.315918	0.0387758	146.0013
1.61621	0.0489712	196.856
1.9165	0.0583619	250.261
2.2168	0.0680655	305.616
2.51709	0.0781983	363.992
2.81738	0.0883371	421.995
3.11768	0.0977546	478.784
3.41797	0.108877	527.953
3.71826	0.119376	592.787
4.01855	0.128576	652.411
4.31885	0.13836	717.652
4.61914	0.148574	776.685
4.91943	0.157699	839.2948
5.21973	0.168937	903.707
5.52002	0.178453	965.676
5.82031	0.189123	1027.03
6.12061	0.198829	1090.62
6.4209	0.209486	1152.65
6.72119	0.220367	1211.457
7.02148	0.229284	1276.28
7.32178	0.238478	1338.2
7.62207	0.248936	1398.41
7.92236	0.259304	1462.62
8.22266	0.269368	1522.17
8.52295	0.280395	1585.81
8.82324	0.289831	1645.28
9.12354	0.298584	1703.06
9.42383	0.309345	1763.86
9.72412	0.318989	1824.67
10.0244	0.329158	1884.48
10.3247	0.3385663	1943.296
10.625	0.348303	2003.59
10.9253	0.358787	2068.82
11.2256	0.370133	2129.22
11.5259	0.378954	2191.36
11.8262	0.389525	2255.58
12.1265	0.40006	2313.89
12.4268	0.410354	2378.02
12.7271	0.420126	2443.84
13.0273	0.434431	2529.39
13.3276	0.443867	2582.79
13.62793	0.454062	2643.23
13.9282	0.4635483	2698.41
14.2285	0.474477	2760
14.5288	0.483763	2817.37
14.8291	0.493336	2876.75
15.1294	0.503272	2937.92
15.4297	0.513026	2995.44
15.72998	0.522465	3056.06
16.0303	0.532329	3113.58
16.3306	0.542226	3172.946
16.6309	0.5525738	3234.59
16.9312	0.561249	3297.85
17.2314	0.5726397	3358.06
17.5317	0.582051	3419.35
17.832	0.591773	3481.11
18.1323	0.603321	3541.38
18.4326	0.612313	3600.31
18.73291	0.622714	3662.14
19.0332	0.632307	3719.88
19.3335	0.640932	3783.59
19.6338	0.652325	3846.72
19.9341	0.663081	3907.2
20.2344	0.671679	3969.15
20.5347	0.682658	4027.3
20.835	0.691429	4089.55
21.1353	0.701314	4152.33
21.4355	0.712687	4216.15
21.73584	0.721136	4279.93
22.0361	0.732097	4340.76
22.3364	0.741181	4399.44
22.6367	0.752518	4461.93
22.937	0.7612288	4526.31
23.2373	0.772011	4582.54
23.5376	0.781289	4643.78
23.8379	0.79259	4706.73
24.1382	0.802428	4771.25
24.4385	0.811964	4830.03
24.73877	0.821859	4888.67
25.0391	0.831935	4954.01
25.3394	0.842547	5013.02
25.6396	0.85215	5076.189
25.9399	0.861821	5135.05
26.2402	0.872052	5199.11
26.5405	0.882143	5261.56
26.84082	0.89255	5325.27
27.1411	0.901639	5382.99
27.4414	0.912121	5443.707
27.7417	0.921929	5504.33
28.042	0.933325	5568.65
28.3423	0.942868	5630.15
28.6426	0.9513557	5691.96
28.9429	0.962877	5750.77
29.2432	0.972259	5813.27
29.5435	0.982293	5875.97
29.84375	0.992012	5937.52
30.144	1.0023	6000.46
30.4443	1.01294	6065.39
30.7446	1.02133	6122.65
31.0449	1.03286	6190.02
31.3452	1.04309	6254.45
31.6455	1.05297	6314.854
31.9458	1.06246	6374.74
32.2461	1.07301	6436.96
32.5464	1.08332	6495.626
32.84668	1.09371	6553.19
33.147	1.10275	6614.35
33.4473	1.112625	6676.13
33.7476	1.12264	6738.91
34.0479	1.13377	6805.6
34.3481	1.14371	6866.8
34.6484	1.15286	6925.14
34.94873	1.16364	6986.13
35.249	1.17306	7046.04
35.5493	1.18325	7105.26
35.8496	1.19416	7168.21
36.1499	1.20266	7230.2
36.4502	1.21236	7289.11
36.7505	1.22259	7351.94
37.0508	1.23312	7416.21
37.3511	1.242438	7478.84
37.6514	1.25289	7539.15
37.95166	1.263243	7600.08
38.252	1.27285	7660.79
38.5522	1.283294	7722.81
38.8525	1.29274	7784.01
39.1528	1.30271	7844.09
39.4531	1.3125	7907.68
39.7534	1.32326	7968.48
40.0537	1.33323	8034.19
40.354	1.34353	8089.03
40.6543	1.35366	8151.82
40.95459	1.3626	8214.333
41.2549	1.37422	8281.6
41.5552	1.38325	8339.13
41.8555	1.39283	8398.69
42.1558	1.40323	8458.69
42.4561	1.41321	8516.49
42.7563	1.42437	8581.43
43.0566	1.43465	8642.6
43.3569	1.4444	8705.47
43.6572	1.45407	8768.76
43.95752	1.46365	8826.55
44.2578	1.47258	8891.2
44.5581	1.48423	8952.17
44.8584	1.49356	9011.74
45.1587	1.50367	9074.168
45.459	1.51306	9131.98
45.7593	1.52401	9196.49
46.05957	1.53339	9256.32
46.3599	1.54395	9316.47
46.6602	1.55415	9377.93
46.9604	1.56385	9440.11
47.2607	1.57415	9499.6
47.561	1.584515	9561.59
47.8613	1.59477	9624.707
48.1616	1.60478	9688.36
48.4619	1.61473	9748.41
48.7622	1.624006	9811.085
49.0625	1.63471	9866.14
49.3628	1.64438	9929.85
49.6631	1.6551	9994.71
49.9634	1.66433	10054.921
50.2637	1.674819	10117.474
50.564	1.68467	10176.6
50.8643	1.69357	10236.475
51.1646	1.7043	10299.125
51.4648	1.71399	10358.982
51.7651	1.72484	10420.688
52.06543	1.734525	10480.754
52.3657	1.74498	10539.868
52.666	1.75389	10601.01
52.9663	1.76534	10659.195
53.2666	1.77424	10718.913
53.5669	1.78424	10777.418
53.8672	1.79404	10836.034
54.16748	1.80453	10894.419
54.4678	1.81411	10955.716
54.7681	1.82375	11012.763
55.0684	1.83333	11074.156
55.3687	1.84408	11132.228
55.6689	1.85398	11192.084
55.9692	1.863423	11253.93
56.2695	1.87509	11313.862
56.5698	1.88356	11377.185
56.8701	1.895	11432.81
57.17041	1.90449	11491.269
57.4707	1.91326	11546.165
57.771	1.92461	11612.68
58.0713	1.93377	11670.83
58.3716	1.9452	11730.268
58.6719	1.95394	11791.104
58.9722	1.965031	11852.783
59.2725	1.97425	11910.213
59.5728	1.98405	11971.822
59.873	1.99344	12031.734
60.17334	2.00506	12091.259
60.4736	2.01409	12151.242
60.7739	2.0237	12209.44
61.0742	2.03522	12268.158
61.3745	2.0441	12327.917
61.6748	2.05569	12385.232
61.9751	2.06499	12442.59
62.2754	2.07479	12499.603
62.5757	2.0841	12556.382
62.876	2.09535	12616.861
63.17627	2.10446	12672.683
63.4766	2.11469	12690.494
63.7769	2.12459	12748.097
64.0771	2.13461	12807.299
64.3774	2.14437	12866.246
64.6777	2.15342	12925.451
64.978	2.16305	12983.821
65.27832	2.17409	13033.974
65.5786	2.18481	12998.272
65.8789	2.19469	13040.266
66.1792	2.204138	13069.813
66.4795	2.21484	13120.997
66.7798	2.22457	13173.826
67.0801	2.23435	13238.612
67.3804	2.24423	13295.645
67.6807	2.25434	13356.769
67.981	2.26449	13415.463
68.28125	2.2743	13472.068
68.5815	2.2844	13529.914
68.8818	2.29379	13590.618
69.1821	2.30376	13644.689
69.4824	2.31474	13703.729
69.7827	2.32456	13761.233
70.083	2.33482	13792.411
70.3833	2.345711	13558.62