Folder: MISC_JupyterNotebook/dublin_poster_plots/Tensile Tests - Quenched Samples 20180604/BLPX-M1-Q045-02_20180604

File: specimen.dat
MTS793|MPT|ENU|1|2|.|/|:|1|0|0|A

Data Acquisition						Time:	66.8501	s	6/4/2018 4:14:49 PM
Time	MTS 4 Displacement 4	MTS 4 Force 4
s	mm	N
0.11377	0.000107288	-22.28627
0.4140625	0.0106305	-9.846035
0.714355	0.0203967	7.17612
1.01465	0.0304908	23.4772
1.31494	0.0413835	42.9614
1.61523	0.0509262	63.8887
1.91553	0.06212	85.56601
2.21582	0.0720561	108.414
2.51611	0.0803769	121.023
2.81641	0.0907153	151.134
3.1167	0.10061	184.202
3.41699	0.111765	213.129
3.71729	0.120774	253.647
4.01758	0.1301676	292.443
4.31787	0.142193	330.802
4.61816	0.150207	374.602
4.918457	0.1604706	422.21
5.21875	0.169843	466.5835
5.519043	0.180468	512.034
5.81934	0.18937	558.543
6.11963	0.199592	611.839
6.41992	0.210437	662.863
6.72021	0.219554	714.922
7.02051	0.230446	764.334
7.3208	0.24046	817.865
7.62109	0.2494216	871.946
7.92139	0.259277	921.311
8.22168	0.270143	968.052
8.52197	0.2813369	1025.8
8.82227	0.2902925	1083.13
9.12256	0.3005594	1131.95
9.42285	0.309861	1182.44
9.72314	0.319868	1235.4
10.0234	0.329962	1291.37
10.32373	0.339147	1343.071
10.624	0.349092	1396.08
10.9243	0.360212	1450.78
11.2246	0.369796	1503.21
11.5249	0.379068	1557.93
11.8252	0.390449	1610.18
12.1255	0.400198	1660.725
12.4258	0.409639	1716.41
12.7261	0.419846	1766.72
13.0264	0.43067	1816.51
13.32666	0.439215	1866.02
13.627	0.449696	1913.95
13.9272	0.460011	1964.746
14.2275	0.470334	2017.89
14.5278	0.481072	2072.82
14.8281	0.490591	2123.93
15.1284	0.501376	2179.81
15.4287	0.512588	2242.14
15.729	0.526512	2311.186
16.0293	0.535369	2358.68
16.32959	0.546202	2411.26
16.6299	0.5551964	2461.51
16.9302	0.564396	2513.4
17.2305	0.575408	2564.28
17.5308	0.584719	2611.67
17.8311	0.594217	2659.99
18.1313	0.604284	2711.03
18.4316	0.613526	2760.22
18.7319	0.624841	2814.19
19.0322	0.63372	2865.44
19.33252	0.644565	2915.54
19.6328	0.652903	2965.92
19.9331	0.663689	3016.22
20.2334	0.672835	3072.1
20.5337	0.682962	3124.96
20.834	0.693032	3176.29
21.1343	0.702986	3232.13
21.43457	0.712007	3282.69
21.7349	0.722286	3338.63
22.0352	0.732484	3390.4
22.3354	0.74228	3444.38
22.6357	0.75289	3497.37
22.936	0.762981	3550.52
23.2363	0.772431	3603.49
23.5366	0.782737	3658.53
23.8369	0.792325	3712.12
24.1372	0.802994	3764.36
24.4375	0.81161	3819.32
24.7378	0.8225292	3876.77
25.0381	0.832775	3927.749
25.3384	0.8423835	3979.55
25.6387	0.852087	4032.86
25.939	0.862128	4085.66
26.2393	0.871661	4145.48
26.5396	0.8818686	4203.24
26.8398	0.892174	4262.94
27.1401	0.902891	4316.74
27.44043	0.912964	4363.97
27.7407	0.9233	4414.53
28.041	0.933379	4467.29
28.3413	0.943559	4524.89
28.6416	0.951669	4579.7
28.9419	0.962681	4636.08
29.2422	0.972977	4690.96
29.54248	0.982952	4749.623
29.8428	0.992662	4806.19
30.1431	1.00204	4859.83
30.4434	1.01183	4914.68
30.7437	1.02116	4970.96
31.0439	1.03178	5027.61
31.3442	1.04243	5074.88
31.6445	1.05281	5128.96
31.9448	1.06245	5184.41
32.2451	1.07246	5241.44
32.54541	1.08204	5298.06
32.8457	1.09204	5347.09
33.146	1.102525	5397.58
33.4463	1.11222	5455.51
33.7466	1.12194	5511.36
34.0469	1.132077	5564.8
34.3472	1.142475	5617.66
34.6475	1.15232	5672.97
34.9478	1.163	5731.77
35.248	1.17241	5786.68
35.54834	1.18173	5837.85
35.8486	1.19166	5898.45
36.1489	1.20291	5954.97
36.4492	1.21251	6008.25
36.7495	1.22215	6064.04
37.0498	1.231885	6119.98
37.3501	1.24259	6180.59
37.6504	1.25259	6229.53
37.9507	1.26273	6288.85
38.251	1.27182	6334.542
38.55127	1.283	6382.11
38.8516	1.29225	6436.14
39.1519	1.30292	6496.95
39.4521	1.31352	6553.6
39.7524	1.32286	6607.34
40.0527	1.3308	6659.6
40.353	1.341024	6713.71
40.65332	1.35205	6772.64
40.9536	1.36177	6829.81
41.2539	1.37182	6887.77
41.5542	1.3821	6924.12
41.8545	1.39251	6978.459
42.1548	1.40214	7031.92
42.4551	1.4127	7083.91
42.7554	1.42332	7140.15
43.0557	1.43252	7188.63
43.356	1.44318	7245.292
43.65625	1.45203	7299.34
43.9565	1.4631	7352.27
44.2568	1.47225	7400.38
44.5571	1.48251	7457.24
44.8574	1.493451	7504.8
45.1577	1.50231	7560.72
45.458	1.51308	7611.91
45.7583	1.5219	7662.34
46.0586	1.53187	7717.19
46.3589	1.54296	7770.91
46.65918	1.55321	7775.12
46.9595	1.56342	7790.69
47.2598	1.57273	7829.75
47.5601	1.58341	7746.436
47.8604	1.59306	7789.43
48.1606	1.60227	7839.52
48.4609	1.612848	7880.353
48.76123	1.62335	7909.84
49.0615	1.63314	7867.03
49.3618	1.64438	7811.249
49.6621	1.65357	7862.58
49.9624	1.66319	7914.7
50.2627	1.673606	7951.48
50.563	1.68275	7994.522
50.8633	1.69311	8041.28
51.1636	1.70242	8088.66
51.4639	1.71344	8144.63
51.76416	1.723516	8197.09
52.0645	1.73332	8196.94
52.3647	1.74317	8216.98
52.665	1.7535	8186.74
52.9653	1.76333	8068.91
53.2656	1.77362	8111.67
53.5659	1.78347	8138.2
53.8662	1.79259	8191.57
54.1665	1.80165	8248.33
54.4668	1.81314	8301.28
54.76709	1.823324	8354.82
55.0674	1.83299	8410.96
55.3677	1.84405	8464.73
55.668	1.85298	8520.06
55.9683	1.8629	8574.69
56.2686	1.87264	8628.01
56.5688	1.88375	8680.38
56.8691	1.89308	8732.86
57.1694	1.90349	8784.99
57.4697	1.91353	8837.52
57.77002	1.92268	8891.1
58.0703	1.933369	8944.23
58.3706	1.94427	8998.16
58.6709	1.95364	9048.26
58.9712	1.964134	9095.71
59.2715	1.97329	9146.34
59.5718	1.98404	9197.24
59.87207	1.9933	9248.29
60.1724	2.00372	9300.02
60.4727	2.01384	9352.55
60.7729	2.02585	9266.07
61.0732	2.03459	9310.03
61.3735	2.043581	9358.17
61.6738	2.05348	9408.14
61.9741	2.0637	9458.69
62.2744	2.07376	9507.51
62.5747	2.08442	9543.88
62.875	2.09327	9597.7
63.1753	2.10333	9650.05
63.4756	2.11429	9702.293
63.7759	2.12433	9751.65
64.0762	2.13365	9803.6
64.3765	2.14352	9856.1
64.6768	2.1548	9905.65
64.9771	2.16348	9955.79
65.2773	2.17467	10002.396
65.5776	2.1836	10044.815
65.87793	2.19396	10088.61
66.1782	2.206728	9588.46
66.4785	2.21603	9586.93
66.7788	2.226	9631.35