Folder: MISC_JupyterNotebook/dublin_poster_plots/Tensile Tests - Quenched Samples 20180604/BLPX-M1-Q015-02_20180604

File: specimen.dat
MTS793|MPT|ENU|1|2|.|/|:|1|0|0|A

Data Acquisition						Time:	102.5166	s	6/4/2018 2:58:45 PM
Time	MTS 4 Displacement 4	MTS 4 Force 4
s	mm	N
0.114258	-0.000345707	-82.1823
0.514648	0.0127375	11.3886
0.915039	0.0267833	111.152
1.31543	0.03913343	209.414
1.71582	0.052768	310.28
2.11621	0.0659704	408.867
2.5166	0.0801623	512.269
2.91699	0.0921816	612.594
3.31738	0.105831	714.004
3.71777	0.119144	814.971
4.11816	0.132316	915.156
4.51855	0.146657	1018.1
4.91895	0.159231	1116.33
5.31934	0.172597	1217.8
5.71973	0.184971	1318.45
6.12012	0.19899	1416.53
6.52051	0.212309	1519.07
6.9209	0.226486	1618.709
7.32129	0.239167	1720.82
7.72168	0.251898	1818.41
8.12207	0.264981	1917.03
8.52246	0.279146	2022.7
8.92285	0.291985	2120.02
9.32324	0.306851	2221.072
9.72363	0.317684	2317.59
10.124	0.333101	2414.45
10.5244	0.345796	2514.407
10.9248	0.358647	2614.81
11.3252	0.372154	2716.49
11.7256	0.387084	2819.62
12.126	0.402901	2941.98
12.5264	0.418645	3048.79
12.9268	0.430998	3146.2
13.3271	0.444111	3240.94
13.7275	0.456834	3337.02
14.12793	0.470683	3429.75
14.52832	0.483435	3527.96
14.9287	0.497082	3625.03
15.3291	0.509265	3716.23
15.7295	0.523594	3812.43
16.1299	0.535959	3910.72
16.5303	0.549892	4006.53
16.9307	0.5631566	4101.72
17.3311	0.575778	4195.84
17.7314	0.589022	4294.19
18.1318	0.602087	4389.05
18.5322	0.615403	4484.84
18.9326	0.628263	4582.19
19.333	0.64379	4678.02
19.7334	0.655839	4774.24
20.1338	0.668693	4872.9
20.53418	0.68208	4966.89
20.93457	0.694904	5063.749
21.335	0.708702	5161.3
21.7354	0.722817	5257.74
22.1357	0.735694	5351.74
22.5361	0.74859	5445.85
22.9365	0.762063	5542.187
23.3369	0.774941	5635.39
23.7373	0.788525	5729.62
24.1377	0.801826	5829.28
24.5381	0.8151263	5921.62
24.9385	0.8297	6018.35
25.3389	0.842261	6113.03
25.7393	0.855643	6207.09
26.1396	0.870207	6299.47
26.54	0.882903	6396.53
26.94043	0.89657	6493.32
27.34082	0.908878	6588.09
27.7412	0.922567	6678.73
28.1416	0.936186	6773.46
28.542	0.951082	6863.68
28.9424	0.962639	6962.79
29.3428	0.97585	7054.2
29.7432	0.989458	7146.93
30.1436	1.00234	7243.47
30.5439	1.01605	7336.49
30.9443	1.02974	7429.55
31.3447	1.0426	7523.542
31.7451	1.05711	7617.94
32.1455	1.07037	7711.229
32.5459	1.08275	7806.82
32.9463	1.095593	7897.7
33.34668	1.1082	7991.14
33.74707	1.12279	8082.16
34.1475	1.13572	8175.666
34.5479	1.15057	8266.86
34.9482	1.162675	8359.5
35.3486	1.17673	8449.26
35.749	1.18918	8544.87
36.1494	1.20361	8636.34
36.5498	1.21556	8730.2
36.9502	1.22953	8821.53
37.3506	1.2427	8914.15
37.751	1.25611	9000.81
38.1514	1.26964	9095.45
38.5518	1.28323	9188.64
38.9521	1.29594	9279.38
39.3525	1.31114	9372.28
39.75293	1.32374	9459.16
40.15332	1.33628	9554.28
40.5537	1.34952	9643.32
40.9541	1.36307	9737.15
41.3545	1.37679	9827.76
41.7549	1.38949	9918.624
42.1553	1.40313	10013.101
42.5557	1.41709	10103.541
42.9561	1.431	10190.01
43.3564	1.44301	10279.696
43.7568	1.45714	10369.981
44.1572	1.47068	10463.834
44.5576	1.48353	10552.518
44.958	1.49645	10643.581
45.3584	1.50998	10730.978
45.7588	1.52397	10819.712
46.15918	1.53745	10911.082
46.55957	1.54969	10999.987
46.96	1.564312	11090.888
47.3604	1.57754	11180.122
47.7607	1.5911	11271.262
48.1611	1.60506	11356.36
48.5615	1.6179	11450.428
48.9619	1.63183	11538.521
49.3623	1.64439	11627.519
49.7627	1.657775	11719.479
50.1631	1.67117	11805.553
50.5635	1.68402	11892.88
50.9639	1.69833	11982.105
51.3643	1.71154	12074.154
51.7646	1.72416	12160.668
52.165	1.73699	12248.788
52.56543	1.74989	12340.854
52.96582	1.76386	12428.769
53.3662	1.777178	12514.815
53.7666	1.79141	12603.032
54.167	1.80486	12692.184
54.5674	1.81726	12781.764
54.9678	1.83093	12870.827
55.3682	1.84371	12958.649
55.7686	1.85801	13045.986
56.1689	1.87123	13133.646
56.5693	1.88417	13223.029
56.9697	1.8982	13309.763
57.3701	1.910165	13393.483
57.7705	1.92396	13482.841
58.1709	1.93749	13568.66
58.5713	1.949811	13657.229
58.97168	1.96435	13749.802
59.37207	1.97791	13831.527
59.7725	1.99005	13915.771
60.1729	2.00387	14008.947
60.5732	2.01724	14095.549
60.9736	2.03104	14180.735
61.374	2.04386	14269.816
61.7744	2.057153	14356.479
62.1748	2.07166	14444.08
62.5752	2.08425	14529.222
62.9756	2.097851	14614.128
63.376	2.11121	14701.344
63.7764	2.12404	14785.395
64.1768	2.13764	14874.225
64.5771	2.15182	14959.856
64.9775	2.16397	15041.918
65.37793	2.17811	15132.498
65.77832	2.19114	15218.117
66.1787	2.20418	15300.328
66.5791	2.21637	15391.407
66.9795	2.23058	15475.966
67.3799	2.24435	15560.731
67.7803	2.25908	15647.943
68.1807	2.27216	15731.994
68.5811	2.28387	15814.879
68.9814	2.29786	15898.584
69.3818	2.311188	15988.238
69.7822	2.32406	16071.177
70.1826	2.33772	16156.698
70.583	2.35089	16241.313
70.9834	2.363342	16328.735
71.3838	2.37751	16416.15
71.78418	2.39018	16501.787
72.18457	2.40485	16585.281
72.585	2.41714	16668.539
72.9854	2.43037	16751.848
73.3857	2.44425	16836.949
73.7861	2.45606	16913.99
74.1865	2.47076	17005.922
74.5869	2.4843	17090.529
74.9873	2.49766	17174.803
75.3877	2.51058	17259.938
75.7881	2.52485	17342.877
76.1885	2.538559	17431.182
76.5889	2.55176	17511.246
76.9893	2.56529	17591.021
77.3896	2.57753	17676.836
77.79	2.5911	17759.541
78.19043	2.60487	17844.209
78.59082	2.617532	17926.156
78.9912	2.62978	18008.834
79.3916	2.64336	18095.369
79.792	2.65782	18176.137
80.1924	2.67013	18259.189
80.5928	2.68353	18345.824
80.9932	2.69752	18427.68
81.3936	2.71123	18510.764
81.7939	2.72407	18593.291
82.1943	2.738276	18674.088
82.5947	2.75077	18751.467
82.9951	2.76405	18835.883
83.3955	2.77773	18921.293
83.7959	2.791	19002.918
84.1963	2.80318	19086.477
84.59668	2.81774	19170.182
84.99707	2.83175	19249.77
85.3975	2.84466	19330.832
85.7979	2.85826	19410.291
86.1982	2.87114	19496.619
86.5986	2.88468	19576.373
86.999	2.89822	19655.807
87.3994	2.91033	19740.232
87.7998	2.92403	19824.455
88.2002	2.938333	19902.816
88.6006	2.9504	19982.563
89.001	2.9646	20065.23
89.4014	2.97782	20146.488
89.8018	2.991447	20225.354
90.2021	3.00399	20302.25
90.6025	3.01892	20384.211
91.00293	3.031373	20467.771
91.40332	3.04416	20545.178
91.8037	3.05787	20627.355
92.2041	3.07122	20708.313
92.6045	3.08417	20786.475
93.0049	3.09787	20869.137
93.4053	3.1118	20950.107
93.8057	3.125	21028.758
94.2061	3.13852	21109.654
94.6064	3.15023	21186.256
95.0068	3.16456	21267.238
95.4072	3.17739	21342.604
95.8076	3.19113	21420.615
96.208	3.20538	21503.504
96.6084	3.21751	21582.453
97.0088	3.23141	21659.725
97.40918	3.24488	21738.746
97.80957	3.2576	21814.418
98.21	3.270793	21888.828
98.6104	3.28375	21969.07
99.0107	3.29904	22046.459
99.4111	3.31071	22126.932
99.8115	3.32425	22201.539
100.212	3.33799	22279.234
100.6123	3.35109	22355.295
101.0127	3.36449	22433.221
101.413	3.37826	22508.34
101.813	3.391	22582.129
102.214	3.40416	22658.803
102.514	3.41552	22714.26

Data Acquisition						Time:	104.312	s	6/4/2018 2:58:47 PM
Time	MTS 4 Displacement 4	MTS 4 Force 4
s	mm	N
102.614	3.41756	22734.189
102.714	3.42125	22753.381
102.814	3.42443	22773.379
102.915	3.42797	22793.176
103.015	3.43175	22813.344
103.115	3.43472	22831.525
103.215	3.43766	22850.93
103.315	3.4415	22869.045
103.415	3.44335	22886.068
103.515	3.44743	22904.08
103.615	3.450346	22921.746
103.715	3.45421	22939.479
103.815	3.45852	22956.971
103.916	3.46065	22973.924
104.016	3.464642	22989.949
104.116	3.46795	23004.832
104.216	3.471446	23022.309