Folder: MISC_JupyterNotebook/dublin_poster_plots/Tensile Tests - Quenched Samples 20180604/BLPX-M1-Q045-05_20180604

File: specimen.dat
MTS793|MPT|ENU|1|2|.|/|:|1|0|0|A

Data Acquisition						Time:	65.3623	s	6/4/2018 4:25:21 PM
Time	MTS 4 Displacement 4	MTS 4 Force 4
s	mm	N
0.114746	0.000151992	-13.8098
0.415039	0.00766814	-10.4913
0.715332	0.0179946	-3.326591
1.015625	0.0280589	6.21025
1.315918	0.0380695	16.3699
1.61621	0.047192	31.5306
1.9165	0.0571579	47.2444
2.2168	0.0680774	70.262
2.51709	0.0772148	94.8385
2.81738	0.0879228	119.934
3.11768	0.0979364	149.449
3.41797	0.1070559	180.4566
3.71826	0.11602	215.749
4.01855	0.126943	251.252
4.31885	0.136629	289.745
4.61914	0.146776	331.2735
4.91943	0.156453	371.599
5.21973	0.165883	420.53
5.52002	0.175899	466.525
5.82031	0.186014	512.533
6.12061	0.195277	561.132
6.4209	0.205877	610.815
6.72119	0.215268	661.271
7.02148	0.226682	714.328
7.32178	0.236633	763.409
7.62207	0.245509	815.661
7.92236	0.2565	868.581
8.22266	0.266334	914.375
8.52295	0.277072	970.915
8.82324	0.286311	1023.18
9.12354	0.295934	1074.78
9.42383	0.3066957	1128.16
9.72412	0.316694	1163.5
10.0244	0.326452	1218.6
10.3247	0.335893	1273.4
10.625	0.3462702	1329.76
10.9253	0.3566891	1383.31
11.2256	0.367263	1435.57
11.5259	0.375977	1490.37
11.8262	0.387001	1546.78
12.1265	0.396296	1590.67
12.4268	0.406623	1648.43
12.7271	0.416735	1704.14
13.0273	0.42679	1756.9
13.3276	0.435713	1812.87
13.62793	0.447312	1863.215
13.9282	0.456035	1914.29
14.2285	0.4679054	1973.64
14.5288	0.476182	2026.91
14.8291	0.487286	2083.16
15.1294	0.497365	2134.44
15.4297	0.506347	2189.83
15.72998	0.516775	2245.31
16.0303	0.527999	2306.9
16.3306	0.539753	2356.05
16.6309	0.547972	2408.11
16.9312	0.557768	2465.47
17.2314	0.567684	2514.88
17.5317	0.578558	2575.32
17.832	0.590953	2635.1
18.1323	0.600284	2688.91
18.4326	0.612205	2764.04
18.73291	0.628665	2849.01
19.0332	0.641343	2918.07
19.3335	0.6501019	2964.25
19.6338	0.659007	3012.61
19.9341	0.667885	3057.92
20.2344	0.676936	3110.55
20.5347	0.685778	3163.15
20.835	0.6955564	3215.03
21.1353	0.704762	3269.574
21.4355	0.713697	3321.64
21.73584	0.722888	3367.928
22.0361	0.734165	3422.7
22.3364	0.742653	3476.71
22.6367	0.753325	3532.32
22.937	0.761935	3588.34
23.2373	0.77253	3634.57
23.5376	0.782439	3691.44
23.8379	0.791639	3744.21
24.1382	0.8010447	3793.74
24.4385	0.811705	3848.87
24.73877	0.820711	3902.88
25.0391	0.82987	3955.46
25.3394	0.839466	4013.115
25.6396	0.849235	4069.91
25.9399	0.86045	4123.44
26.2402	0.869435	4180.74
26.5405	0.879917	4237.84
26.84082	0.889957	4296
27.1411	0.901017	4359.67
27.4414	0.910714	4413.92
27.7417	0.920293	4469.99
28.042	0.929832	4525.7
28.3423	0.941327	4585.24
28.6426	0.950861	4641.4
28.9429	0.960261	4699.82
29.2432	0.970957	4755.67
29.5435	0.979856	4811.917
29.84375	0.99	4871.66
30.144	1.000905	4925.7
30.4443	1.010704	4986.31
30.7446	1.02084	5044.32
31.0449	1.03058	5101.41
31.3452	1.03975	5155.44
31.6455	1.05024	5212.07
31.9458	1.05998	5272.14
32.2461	1.07128	5328.45
32.5464	1.07995	5385.65
32.84668	1.09064	5445.57
33.147	1.10114	5498.77
33.4473	1.1102	5559.375
33.7476	1.1208	5616.31
34.0479	1.12914	5664.08
34.3481	1.139918	5723.89
34.6484	1.1484	5780.86
34.94873	1.15958	5845.76
35.249	1.17179	5904.45
35.5493	1.18104	5958.76
35.8496	1.190275	6017.85
36.1499	1.20059	6076.14
36.4502	1.21041	6132.87
36.7505	1.21965	6191.62
37.0508	1.23137	6247.26
37.3511	1.23918	6303.17
37.6514	1.25053	6360.05
37.95166	1.26121	6417.9
38.252	1.27039	6474.97
38.5522	1.280874	6536.67
38.8525	1.29039	6598.686
39.1528	1.30113	6653.7
39.4531	1.31083	6717.27
39.7534	1.32104	6775.03
40.0537	1.33102	6834.916
40.354	1.34116	6889.25
40.6543	1.35121	6951.11
40.95459	1.36141	7008.8
41.2549	1.3713	7065.5
41.5552	1.38067	7126.05
41.8555	1.39258	7186.55
42.1558	1.40125	7244.68
42.4561	1.41211	7301.06
42.7563	1.42088	7360.19
43.0566	1.43117	7420.26
43.3569	1.44223	7477.708
43.6572	1.45137	7536.89
43.95752	1.46166	7593.51
44.2578	1.47192	7637.36
44.5581	1.482451	7690.55
44.8584	1.49201	7745.813
45.1587	1.502	7803.72
45.459	1.51186	7860.02
45.7593	1.52199	7919.93
46.05957	1.53177	7978.51
46.3599	1.54146	8037.98
46.6602	1.55125	8093.689
46.9604	1.56014	8153.11
47.2607	1.57205	8210.29
47.561	1.58155	8267.21
47.8613	1.59219	8307.89
48.1616	1.60166	8361.126
48.4619	1.61167	8414.51
48.7622	1.62224	8439.53
49.0625	1.63259	8497.79
49.3628	1.64171	8538.94
49.6631	1.65163	8584.61
49.9634	1.66126	8641.62
50.2637	1.67188	8701.67
50.564	1.682061	8763.74
50.8643	1.69357	8814.666
51.1646	1.70188	8865.04
51.4648	1.71377	8918.65
51.7651	1.72282	8974.91
52.06543	1.73268	9028.87
52.3657	1.743114	9080.18
52.666	1.75312	9131.68
52.9663	1.762	9185.48
53.2666	1.772517	9191.06
53.5669	1.78267	9235.29
53.8672	1.79193	9285.52
54.16748	1.80336	9218.45
54.4678	1.8139	9268.56
54.7681	1.82431	9303.89
55.0684	1.8339	9352.83
55.3687	1.84471	9366.16
55.6689	1.85356	9411.83
55.9692	1.86393	9437.376
56.2695	1.87286	9471.53
56.5698	1.88249	9525.28
56.8701	1.89268	9431.8
57.17041	1.9027	9449.18
57.4707	1.91291	9505.86
57.771	1.92253	9544.64
58.0713	1.93824	9195.26
58.3716	1.94801	9187.72
58.6719	1.95808	9123.87
58.9722	1.970166	8958.57
59.2725	1.98007	9005.16
59.5728	1.99047	8919.14
59.873	1.9998	8976.41
60.17334	2.00933	9028.93
60.4736	2.01764	9078.15
60.7739	2.03064	8836.94
61.0742	2.04032	8844.18
61.3745	2.05241	8614.4
61.6748	2.06244	8638.1
61.9751	2.07013	8680.583
62.2754	2.08095	8493.53
62.5757	2.0907	8564.3
62.876	2.1004	8612.48
63.17627	2.10993	8660.76
63.4766	2.11827	8709.17
63.7769	2.12755	8755.97
64.0771	2.13734	8806.7
64.3774	2.14644	8854.61
64.6777	2.15645	8902.94
64.978	2.16596	8949.07
65.27832	2.1733	8997.62