Folder: MISC_JupyterNotebook/dublin_poster_plots/Tensile Tests - Quenched Samples 20180604/BLPX-M1-Q045-01_20180604

File: specimen.dat
MTS793|MPT|ENU|1|2|.|/|:|1|0|0|A

Data Acquisition						Time:	67.3677	s	6/4/2018 2:23:23 PM
Time	MTS 4 Displacement 4	MTS 4 Force 4
s	mm	N
0.114746	-0.000306964	-0.820681
0.415039	0.00904202	7.02711
0.715332	0.0210613	16.7179
1.015625	0.0306368	24.9873
1.315918	0.0403732	35.2251
1.61621	0.0505656	48.9584
1.9165	0.0604272	62.8073
2.2168	0.0711441	74.5343
2.51709	0.0804514	89.35202
2.81738	0.0910759	106.604
3.11768	0.101069	125.45
3.41797	0.110322	134.395
3.71826	0.120699	155.916
4.01855	0.130141	179.523
4.31885	0.141051	205.092
4.61914	0.149518	235.773
4.91943	0.1598835	265.775
5.21973	0.170112	298.924
5.52002	0.180081	334.087
5.82031	0.189215	375.42
6.12061	0.200275	416.04
6.4209	0.20951	453.451
6.72119	0.219741	503.084
7.02148	0.229487	550.771
7.32178	0.239912	598.202
7.62207	0.250036	652.114
7.92236	0.258672	700.311
8.22266	0.26882	755.794
8.52295	0.2794534	805.445
8.82324	0.28832	857.47
9.12354	0.298461	913.334
9.42383	0.308707	968.69
9.72412	0.320089	1022.95
10.0244	0.328144	1068.04
10.3247	0.339597	1120.65
10.625	0.350022	1177.26
10.9253	0.359556	1233.756
11.2256	0.370306	1290.06
11.5259	0.378975	1341.59
11.8262	0.3895402	1398.81
12.1265	0.400084	1453.58
12.4268	0.408816	1509.26
12.7271	0.420311	1565.78
13.0273	0.430018	1620.01
13.3276	0.4396826	1672.93
13.62793	0.449398	1729
13.9282	0.460553	1786.42
14.2285	0.468981	1840.55
14.5288	0.479597	1893.55
14.8291	0.489542	1945.61
15.1294	0.500256	1998.99
15.4297	0.510576	2053.5
15.72998	0.5197674	2107.373
16.0303	0.529137	2156.76
16.3306	0.540426	2211.42
16.6309	0.549302	2265.34
16.9312	0.560039	2318.178
17.2314	0.570714	2374.08
17.5317	0.579488	2427.72
17.832	0.590953	2485.83
18.1323	0.6000489	2538.63
18.4326	0.608876	2595.1
18.73291	0.6200254	2649.64
19.0332	0.630632	2698.79
19.3335	0.640342	2753.93
19.6338	0.649306	2806.69
19.9341	0.660664	2865.71
20.2344	0.672057	2925.97
20.5347	0.681746	2980.4
20.835	0.691718	3038.18
21.1353	0.70129	3090.707
21.4355	0.711957	3143.17
21.73584	0.723895	3215.81
22.0361	0.740606	3307.231
22.3364	0.750571	3356.23
22.6367	0.758576	3406.79
22.937	0.767869	3457.94
23.2373	0.77801	3510.61
23.5376	0.787073	3560.28
23.8379	0.797454	3612.67
24.1382	0.806326	3665.88
24.4385	0.815547	3717.36
24.73877	0.825354	3772.09
25.0391	0.834677	3824.635
25.3394	0.84447	3876.5
25.6396	0.85482	3933.1
25.9399	0.863588	3986.502
26.2402	0.87325	4040.9
26.5405	0.883442	4094.69
26.84082	0.892809	4151.03
27.1411	0.90265	4205.98
27.4414	0.912434	4261.16
27.7417	0.922742	4313.18
28.042	0.933072	4371.51
28.3423	0.942531	4425.51
28.6426	0.952733	4481.88
28.9429	0.961837	4540.95
29.2432	0.972068	4594.8
29.5435	0.982121	4651.94
29.84375	0.992253	4707.95
30.144	1.00225	4770.25
30.4443	1.01257	4823.97
30.7446	1.02086	4879.16
31.0449	1.03307	4942.81
31.3452	1.04287	5000.51
31.6455	1.05287	5055.76
31.9458	1.06298	5112.99
32.2461	1.0737	5172.52
32.5464	1.0823	5227.52
32.84668	1.09283	5288.53
33.147	1.10276	5347.74
33.4473	1.11184	5401.353
33.7476	1.12189	5457.437
34.0479	1.13264	5516.73
34.3481	1.14235	5573.36
34.6484	1.15307	5626.022
34.94873	1.162	5685.23
35.249	1.172021	5740.12
35.5493	1.18322	5802.623
35.8496	1.19266	5860.18
36.1499	1.20358	5916.5
36.4502	1.21284	5971.16
36.7505	1.22281	6027.07
37.0508	1.23191	6083.78
37.3511	1.2425	6142.2
37.6514	1.252237	6196.91
37.95166	1.263091	6254.66
38.252	1.27296	6314.38
38.5522	1.282379	6368.81
38.8525	1.2917	6426.01
39.1528	1.30282	6485.543
39.4531	1.31432	6546.9
39.7534	1.32254	6600.59
40.0537	1.33197	6658.81
40.354	1.34355	6714.501
40.6543	1.35306	6770.18
40.95459	1.36342	6827.76
41.2549	1.3724	6884.69
41.5552	1.38285	6941.64
41.8555	1.39189	7001.51
42.1558	1.40332	7059.61
42.4561	1.41303	7116.76
42.7563	1.42247	7171.88
43.0566	1.43348	7218.415
43.3569	1.44372	7275.04
43.6572	1.45251	7320.34
43.95752	1.46312	7362.749
44.2578	1.473251	7423.77
44.5581	1.48295	7478.32
44.8584	1.49385	7534.4
45.1587	1.50343	7592.42
45.459	1.51194	7647.12
45.7593	1.52341	7709.3
46.05957	1.533106	7756.41
46.3599	1.54352	7810.38
46.6602	1.55393	7870.44
46.9604	1.56301	7925.23
47.2607	1.573059	7980.873
47.561	1.58407	8036.855
47.8613	1.59363	8095.459
48.1616	1.60355	8149.93
48.4619	1.61365	8206.15
48.7622	1.62348	8262.53
49.0625	1.63346	8317.51
49.3628	1.64411	8372.64
49.6631	1.65448	8377.06
49.9634	1.6638	8432
50.2637	1.67397	8487.9
50.564	1.6839	8543.89
50.8643	1.69358	8597.47
51.1646	1.7038	8655.46
51.4648	1.71399	8714.96
51.7651	1.72438	8772.93
52.06543	1.73412	8828.11
52.3657	1.74292	8882.042
52.666	1.75416	8936.1
52.9663	1.76411	8993.17
53.2666	1.77423	9024.17
53.5669	1.783213	9060.375
53.8672	1.79403	9113.85
54.16748	1.803273	9171.06
54.4678	1.81449	9227.49
54.7681	1.82298	9282.24
55.0684	1.83382	9339.498
55.3687	1.842761	9393.44
55.6689	1.85387	9449.76
55.9692	1.86306	9507.18
56.2695	1.87411	9566.26
56.5698	1.88385	9615.03
56.8701	1.894784	9665.21
57.17041	1.90407	9718.44
57.4707	1.91554	9551.26
57.771	1.92667	9597.8
58.0713	1.9357	9626.61
58.3716	1.94428	9682.043
58.6719	1.954937	9679.21
58.9722	1.96465	9727.85
59.2725	1.97553	9626.18
59.5728	1.98852	9265.62
59.873	1.998	9318.45
60.17334	2.00673	9374.62
60.4736	2.01812	9433.46
60.7739	2.02592	9490.91
61.0742	2.03517	9548.84
61.3745	2.04543	9603.11
61.6748	2.05456	9660.77
61.9751	2.06545	9714.58
62.2754	2.07472	9768.957
62.5757	2.0844	9800.43
62.876	2.0973	9487.33
63.17627	2.10782	9486.792
63.4766	2.11708	9542.37
63.7769	2.12553	9596.29
64.0771	2.13474	9649.99
64.3774	2.14483	9703.54
64.6777	2.15433	9756.75
64.978	2.16697	9651.72
65.27832	2.17559	9705.2
65.5786	2.18539	9755.7
65.8789	2.19433	9807.82
66.1792	2.20525	9674.72
66.4795	2.21497	9721.53
66.7798	2.22534	9774.26
67.0801	2.23604	9690.33
67.2803	2.243206	9663.62