Folder: MISC_JupyterNotebook/dublin_poster_plots/Tensile Tests - Quenched Samples 20180604/BLPX-M1-Q015-05_20180604

File: specimen.dat
MTS793|MPT|ENU|1|2|.|/|:|1|0|0|A

Data Acquisition						Time:	100.214	s	6/4/2018 3:16:30 PM
Time	MTS 4 Displacement 4	MTS 4 Force 4
s	mm	N
0.113281	0.000318885	-35.5861
0.513672	0.0137925	62.7744
0.9140625	0.0279516	160.575
1.31445	0.0406414	257.641
1.71484	0.0534624	360.2204
2.11523	0.0666291	458.5174
2.515625	0.079602	560.336
2.91602	0.0928193	662.192
3.31641	0.105992	762.334
3.7168	0.1198411	863.401
4.11719	0.131822	962.854
4.51758	0.146067	1066.17
4.91797	0.159717	1168.2
5.31836	0.17319	1267.43
5.71875	0.185981	1367.34
6.11914	0.199586	1468.35
6.51953	0.212434	1569.06
6.91992	0.224945	1667.58
7.32031	0.238961	1769.17
7.7207	0.253028	1867.14
8.12109	0.265864	1969.822
8.52148	0.279656	2070.14
8.921875	0.292578	2167.1
9.32227	0.305563	2265.56
9.72266	0.319567	2363.82
10.123	0.334695	2473.45
10.5234	0.347555	2575.59
10.9238	0.364733	2704.22
11.3242	0.377744	2798.96
11.7246	0.391471	2893.23
12.125	0.403497	2989.09
12.5254	0.4160285	3083.36
12.9258	0.428957	3177.27
13.3262	0.442761	3276.21
13.7266	0.455749	3368.61
14.127	0.468987	3464.15
14.5273	0.482908	3558.126
14.9277	0.496611	3653.79
15.3281	0.508216	3751.84
15.7285	0.522646	3846.22
16.1289	0.535625	3942.87
16.5293	0.548613	4038.71
16.9297	0.562409	4136.58
17.3301	0.575536	4228.606
17.7305	0.588936	4328.95
18.1309	0.602776	4422.84
18.53125	0.615862	4517.05
18.9316	0.629187	4612.16
19.332	0.642815	4706.02
19.7324	0.656351	4807.04
20.1328	0.669459	4898.88
20.5332	0.682655	4990.54
20.9336	0.695601	5084.72
21.334	0.709364	5180.93
21.7344	0.722674	5276.13
22.1348	0.73522	5364.99
22.5352	0.750005	5458.11
22.9355	0.763124	5551.32
23.3359	0.775489	5647.168
23.7363	0.789288	5739.13
24.1367	0.803605	5829.25
24.5371	0.817353	5922.41
24.9375	0.828487	6013.98
25.3379	0.8431375	6112.51
25.7383	0.85583	6201.23
26.1387	0.869653	6294.61
26.5391	0.882813	6386.62
26.9395	0.896081	6477.99
27.3398	0.9093821	6569.14
27.7402	0.922865	6660.89
28.1406	0.936213	6754.15
28.541	0.948146	6844.59
28.9414	0.963172	6938.3
29.3418	0.976241	7028.58
29.7422	0.989425	7116.9
30.1426	1.00326	7208.55
30.543	1.01549	7298.34
30.9434	1.02912	7391.04
31.34375	1.0432	7484.23
31.7441	1.05602	7573.88
32.1445	1.06955	7666.502
32.5449	1.08311	7754.36
32.9453	1.09669	7846.71
33.3457	1.10967	7935.69
33.7461	1.1229	8024.34
34.1465	1.13707	8114.57
34.5469	1.149267	8206.47
34.9473	1.163733	8295.24
35.3477	1.176393	8380.18
35.748	1.18957	8472.6
36.1484	1.20371	8562.14
36.5488	1.217	8652.376
36.9492	1.22911	8742
37.3496	1.2432	8832.94
37.75	1.25678	8921.72
38.1504	1.26975	9010.79
38.5508	1.28312	9094.98
38.9512	1.29647	9184.63
39.3516	1.31029	9274.27
39.752	1.32351	9364.37
40.1523	1.337	9454.67
40.5527	1.35015	9544.22
40.9531	1.36303	9632.49
41.3535	1.37683	9719.29
41.7539	1.390323	9808.94
42.1543	1.40361	9895.66
42.5547	1.41689	9983.38
42.9551	1.4298	10069.689
43.3555	1.44369	10161.05
43.7559	1.45699	10248.858
44.15625	1.46971	10333.532
44.5566	1.48322	10421.333
44.957	1.49622	10504.854
45.3574	1.50955	10592.918
45.7578	1.52395	10683.057
46.1582	1.53615	10769.109
46.5586	1.550436	10853.122
46.959	1.56363	10942.978
47.3594	1.57671	11030.131
47.7598	1.58999	11115.83
48.1602	1.605016	11200.888
48.5605	1.6174	11287.268
48.9609	1.62948	11374.74
49.3613	1.64343	11460.332
49.7617	1.65652	11550.086
50.1621	1.66956	11637.106
50.5625	1.68334	11721.97
50.9629	1.696834	11808.636
51.3633	1.71005	11897.086
51.7637	1.723814	11978.453
52.1641	1.73704	12067.65
52.5645	1.750344	12153.29
52.9648	1.76251	12235.326
53.3652	1.77702	12324.063
53.7656	1.78988	12409.245
54.166	1.80354	12493.305
54.5664	1.81746	12579.026
54.9668	1.83089	12664.755
55.3672	1.84366	12747.67
55.7676	1.85647	12834.065
56.168	1.86998	12920.67
56.5684	1.88315	13008.008
56.96875	1.89677	13094.562
57.3691	1.911	13174.564
57.7695	1.92427	13262.268
58.1699	1.93676	13345.579
58.5703	1.95031	13433.317
58.9707	1.965335	13519.795
59.3711	1.97729	13602.95
59.7715	1.9915	13690.979
60.1719	2.00523	13775.636
60.5723	2.01864	13861.259
60.9727	2.03171	13943.64
61.373	2.04613	14032.185
61.7734	2.058938	14114.529
62.1738	2.07114	14197.109
62.5742	2.084	14281.311
62.9746	2.09824	14364.914
63.375	2.11104	14446.904
63.7754	2.12548	14530.959
64.1758	2.13739	14616.47
64.5762	2.15174	14698.987
64.9766	2.16426	14786.445
65.377	2.17846	14865.85
65.7773	2.19039	14945.93
66.1777	2.20389	15032.173
66.5781	2.217844	15116.444
66.9785	2.23077	15195.363
67.3789	2.24508	15279.654
67.7793	2.2574	15365.348
68.1797	2.27097	15446.302
68.5801	2.28504	15531.913
68.9805	2.29756	15613.312
69.3809	2.31118	15695.51
69.78125	2.32405	15778.819
70.1816	2.33721	15860.588
70.582	2.35034	15941.743
70.9824	2.36408	16029.297
71.3828	2.37711	16111.522
71.7832	2.39114	16194.164
72.1836	2.40472	16275.705
72.584	2.41772	16356.501
72.9844	2.43138	16439.504
73.3848	2.44494	16525.574
73.7852	2.457902	16606.625
74.1855	2.47031	16684.771
74.5859	2.48401	16766.369
74.9863	2.49773	16849.537
75.3867	2.51024	16934.672
75.7871	2.52447	17017.264
76.1875	2.53688	17096.566
76.5879	2.55103	17177.508
76.9883	2.56464	17257.699
77.3887	2.57838	17340.904
77.7891	2.59072	17419.732
78.1895	2.60568	17504.953
78.5898	2.61786	17585.021
78.9902	2.6311	17664.256
79.3906	2.64506	17739.828
79.791	2.65793	17819.594
80.1914	2.66989	17901.943
80.5918	2.68559	17980.324
80.9922	2.6978	18065.99
81.3926	2.71179	18144.682
81.793	2.72549	18225.357
82.1934	2.73767	18304.836
82.59375	2.751091	18388.318
82.9941	2.76426	18467.365
83.3945	2.77767	18549.383
83.7949	2.791822	18629.574
84.1953	2.80493	18710.541
84.5957	2.81793	18789.473
84.9961	2.83214	18868.098
85.3965	2.84452	18945.846
85.7969	2.85747	19024.611
86.1973	2.87038	19102.83
86.5977	2.884388	19182.525
86.998	2.89817	19260.791
87.3984	2.91121	19341.053
87.7988	2.92446	19419.354
88.1992	2.9379	19501.379
88.5996	2.95067	19578.553
89	2.964133	19657.697
89.4004	2.97883	19737.893
89.8008	2.99153	19814.844
90.2012	3.00531	19893.104
90.6016	3.01814	19973.068
91.002	3.0316	20053.967
91.4023	3.04393	20131.777
91.8027	3.05913	20208.109
92.2031	3.071651	20285.566
92.6035	3.08537	20367.689
93.0039	3.09811	20446.34
93.4043	3.11216	20519.939
93.8047	3.12585	20596.861
94.2051	3.13824	20674.691
94.6055	3.15182	20752.258
95.0059	3.16474	20830.201
95.40625	3.17837	20902.887
95.8066	3.1925	20980.381
96.207	3.205961	21066.955
96.6074	3.21977	21138.566
97.0078	3.2325	21214.463
97.4082	3.24599	21287.203
97.8086	3.26103	21362.596
98.209	3.27172	21431.766
98.6094	3.28638	21509.354
99.0098	3.299278	21586.48
99.4102	3.31284	21585.08
99.8105	3.32627	21607.004
100.111	3.33531	21647.174