Folder: MISC_JupyterNotebook/dublin_poster_plots/Tensile Tests - Quenched Samples 20180604/BLPX-M1-Q030-05_20180604

File: specimen.dat
MTS793|MPT|ENU|1|2|.|/|:|1|0|0|A

Data Acquisition						Time:	70.563	s	6/4/2018 3:55:31 PM
Time	MTS 4 Displacement 4	MTS 4 Force 4
s	mm	N
0.114258	-0.000521541	-15.7224
0.414551	0.00960827	10.2138
0.714844	0.0200123	39.5591
1.01514	0.0300795	68.1125
1.31543	0.0398278	96.2666
1.61572	0.0500292	131.255
1.91602	0.06057322	151.302
2.21631	0.06890893	185.26
2.5166	0.080359	219.351
2.81689	0.0888616	263.036
3.11719	0.0993788	306.477
3.41748	0.108972	354.292
3.71777	0.119162	404.445
4.01807	0.129205	455.1015
4.31836	0.1395762	500.857
4.61865	0.1494348	556.674
4.91895	0.159118	613.547
5.21924	0.168931	667.819
5.51953	0.178105	724.151
5.81982	0.189272	782.4502
6.12012	0.19933	840.4101
6.42041	0.209537	900.6795
6.7207	0.2175808	957.557
7.021	0.22912	1019.373
7.32129	0.23922	1078.23
7.621582	0.248599	1137.95
7.921875	0.258711	1196.43
8.222168	0.270015	1260.47
8.52246	0.278836	1320.62
8.82275	0.288269	1379.44
9.12305	0.299063	1441.03
9.42334	0.309944	1501.02
9.72363	0.318697	1562.53
10.0239	0.329226	1624.09
10.3242	0.339088	1687.44
10.6245	0.350168	1747.83
10.9248	0.35882	1802.97
11.2251	0.36954	1872.483
11.5254	0.379345	1930.72
11.8257	0.38946	1991.6
12.126	0.399241	2055.31
12.42627	0.408253	2114.48
12.7266	0.419524	2171.33
13.0269	0.428033	2231.11
13.3271	0.43838	2297.53
13.6274	0.4506737	2364.06
13.9277	0.465804	2457.96
14.228	0.476065	2525.3
14.52832	0.4860729	2585.1
14.8286	0.496876	2642.49
15.1289	0.505695	2698.02
15.4292	0.514209	2757.34
15.7295	0.5248487	2818.219
16.0298	0.534955	2871.22
16.3301	0.544217	2929.93
16.6304	0.555044	2987.91
16.9307	0.563416	3049.55
17.231	0.573477	3107.969
17.53125	0.583303	3168.07
17.8315	0.593728	3228.11
18.1318	0.603887	3287.92
18.4321	0.612932	3345.74
18.7324	0.622213	3405.9
19.0327	0.632843	3464.66
19.333	0.642195	3530.14
19.6333	0.652567	3590.8
19.9336	0.662243	3650.6
20.2339	0.6713599	3706.87
20.53418	0.6819725	3768.68
20.8345	0.69142	3830.26
21.1348	0.702298	3895.39
21.4351	0.711262	3958.2
21.7354	0.7212311	4015.87
22.0356	0.731343	4077.49
22.3359	0.742131	4136.27
22.63623	0.752661	4199.63
22.9365	0.761691	4265.8
23.2368	0.772715	4328.65
23.5371	0.781122	4389.13
23.8374	0.79143	4452.76
24.1377	0.802144	4513.45
24.438	0.812945	4573.77
24.7383	0.823262	4635.98
25.0386	0.831673	4695.23
25.3389	0.841227	4759.9
25.63916	0.852939	4827.6
25.9395	0.861129	4887.59
26.2397	0.872314	4954.28
26.54	0.881258	5015.82
26.8403	0.891981	5078.79
27.1406	0.9024173	5140.59
27.4409	0.912294	5201.98
27.7412	0.922358	5265.61
28.0415	0.932768	5330.09
28.3418	0.943035	5392.11
28.64209	0.952414	5453.65
28.9424	0.961387	5518.93
29.2427	0.972119	5582.06
29.543	0.982508	5645.6
29.8433	0.992376	5707.39
30.1436	1.00231	5762.68
30.4438	1.01268	5828.18
30.7441	1.02151	5891.98
31.0444	1.032424	5959.21
31.3447	1.043877	6028.06
31.64502	1.05256	6092.26
31.9453	1.06327	6155.36
32.2456	1.07163	6215.14
32.5459	1.08189	6286.58
32.8462	1.0934	6350.15
33.1465	1.1027	6412.51
33.4468	1.11276	6474.04
33.74707	1.12166	6537.48
34.0474	1.13311	6601.38
34.3477	1.14151	6663.04
34.6479	1.153037	6726.35
34.9482	1.16386	6791.86
35.2485	1.17228	6849.88
35.5488	1.18338	6918.24
35.8491	1.19347	6984.98
36.1494	1.20359	7047.25
36.4497	1.21279	7109.75
36.75	1.22254	7173.69
37.0503	1.23299	7235.32
37.3506	1.24256	7299.84
37.6509	1.25385	7365.8
37.9512	1.26219	7429.502
38.2515	1.27475	7495.103
38.5518	1.28447	7563.02
38.8521	1.29237	7624.085
39.1523	1.30356	7684.84
39.4526	1.31373	7749.22
39.75293	1.32381	7818.73
40.0532	1.33233	7880.08
40.3535	1.34422	7942.68
40.6538	1.35193	8007.43
40.9541	1.36268	8069.3
41.2544	1.37237	8133.79
41.5547	1.38361	8197.63
41.85498	1.39266	8256.3
42.1553	1.40337	8324.09
42.4556	1.41311	8386.57
42.7559	1.42482	8453.04
43.0562	1.43365	8517.94
43.3564	1.44268	8583.582
43.6567	1.45309	8646.76
43.957	1.4631	8708.56
44.2573	1.473248	8772.32
44.5576	1.48262	8834.61
44.85791	1.49287	8902.35
45.1582	1.503554	8967.73
45.4585	1.51378	9031.02
45.7588	1.52359	9092.3
46.0591	1.53289	9156.35
46.3594	1.54298	9220.98
46.6597	1.55253	9281.89
46.96	1.56252	9311.5
47.2603	1.573354	9377.45
47.5605	1.58334	9442.37
47.86084	1.59347	9504.47
48.1611	1.60338	9571.47
48.4614	1.61352	9635.69
48.7617	1.62256	9697.29
49.062	1.6339	9764.09
49.3623	1.6431	9826.751
49.6626	1.653108	9889.41
49.9629	1.66309	9954.87
50.2632	1.67274	10016.626
50.5635	1.683256	10080.863
50.86377	1.6927	10146.244
51.1641	1.70336	10207.804
51.4644	1.71404	10276.966
51.7646	1.72336	10336.934
52.0649	1.73309	10398.26
52.3652	1.74355	10461.151
52.6655	1.75347	10525.645
52.96582	1.76337	10575.498
53.2661	1.77254	10633.123
53.5664	1.78301	10699.481
53.8667	1.79299	10761.569
54.167	1.804	10820.709
54.4673	1.81481	10888.307
54.7676	1.82364	10950.425
55.0679	1.83386	11013.911
55.3682	1.84423	11073.269
55.6685	1.85372	11135.663
55.96875	1.86505	11195.211
56.269	1.87317	11256.964
56.5693	1.88411	11321.225
56.8696	1.89334	11362.026
57.1699	1.9032	11424.953
57.4702	1.91424	11487.343
57.7705	1.92427	11507.774
58.0708	1.93484	11519.79
58.3711	1.94474	11581.245
58.6714	1.95475	11643.979
58.97168	1.96455	11711.504
59.272	1.97435	11770.739
59.5723	1.98492	11835.446
59.8726	1.99566	11902.144
60.1729	2.0039	11965.685
60.4731	2.01475	12029.655
60.7734	2.0256	12093.363
61.07373	2.0349	12155.17
61.374	2.04597	12216.942
61.6743	2.05566	12280.023
61.9746	2.066195	12341.565
62.2749	2.07485	12398.864
62.5752	2.08492	12459.179
62.8755	2.09557	12506.77
63.1758	2.10432	12564.436
63.4761	2.11521	12593.928
63.7764	2.12438	12651.32
64.07666	2.135715	12712.063
64.377	2.144876	12773.974
64.6772	2.15537	12771.518
64.9775	2.1647	12835.995
65.2778	2.17494	12907.798
65.5781	2.18599	12967.023
65.8784	2.19515	13015.32
66.1787	2.20514	13061.588
66.479	2.21446	13111.75
66.7793	2.22473	13171.565
67.07959	2.23421	13232.439
67.3799	2.24472	13294.814
67.6802	2.25515	13323.05
67.9805	2.26367	13382.158
68.2808	2.27466	13445.242
68.5811	2.28491	13462.705
68.8813	2.29473	13498.597
69.1816	2.30572	13557.563
69.4819	2.31404	13617.313
69.7822	2.3241	13681.018
70.08252	2.33434	13740.461
70.3828	2.34467	13799.529
70.48291	2.34801	13817.799