Folder: MISC_JupyterNotebook/dublin_poster_plots/Tensile Tests - Quenched Samples 20180604/BLPX-M1-Q030-01_20180604

File: specimen.dat
MTS793|MPT|ENU|1|2|.|/|:|1|0|0|A

Data Acquisition						Time:	71.78418	s	6/4/2018 2:34:34 PM
Time	MTS 4 Displacement 4	MTS 4 Force 4
s	mm	N
0.114258	-0.000295043	-30.6555
0.414551	0.00676811	7.33994
0.714844	0.0145316	64.3018
1.01514	0.0252992	122.838
1.31543	0.03477633	182.384
1.61572	0.0437707	242.084
1.91602	0.0540942	303.752
2.21631	0.0645906	370.739
2.5166	0.07430613	434.747
2.81689	0.0849366	499.834
3.11719	0.09368062	564.1972
3.41748	0.103229	626.3302
3.71777	0.1142323	695.937
4.01807	0.125089	760.553
4.31836	0.134754	821.36
4.61865	0.144148	882.433
4.91895	0.154322	945.4
5.21924	0.165102	1011.8
5.51953	0.1755	1075.71
5.81982	0.185245	1135.2
6.12012	0.195301	1195.62
6.42041	0.204575	1259.54
6.7207	0.215998	1318.7
7.021	0.225478	1381.57
7.32129	0.235724	1445.25
7.621582	0.245523	1508.99
7.921875	0.256172	1569.82
8.222168	0.26637	1626.87
8.52246	0.275433	1689.86
8.82275	0.285879	1751.764
9.12305	0.296471	1812.73
9.42334	0.306362	1868.14
9.72363	0.316694	1928.15
10.0239	0.326112	1989.57
10.3242	0.336543	2050.91
10.6245	0.345799	2109.64
10.9248	0.356126	2168.83
11.2251	0.366965	2223.72
11.5254	0.376931	2289.55
11.8257	0.387585	2348.626
12.126	0.396451	2402.66
12.42627	0.4077971	2462.14
12.7266	0.417161	2517.47
13.0269	0.427285	2578.415
13.3271	0.4368782	2638.78
13.6274	0.448209	2703.61
13.9277	0.4591912	2759.86
14.228	0.467688	2814.28
14.52832	0.477463	2871.42
14.8286	0.489461	2932.35
15.1289	0.498191	2994.63
15.4292	0.510812	3063.71
15.7295	0.518835	3121.37
16.0298	0.528625	3176.86
16.3301	0.5377084	3236.68
16.6304	0.549355	3298.53
16.9307	0.5597	3359.833
17.231	0.569245	3417.52
17.53125	0.581455	3494.65
17.8315	0.593019	3560.42
18.1318	0.603116	3614.56
18.4321	0.612158	3668.85
18.7324	0.622785	3726.15
19.0327	0.642839	3858.394
19.333	0.652504	3906.44
19.6333	0.662029	3955.968
19.9336	0.670066	4008.18
20.2339	0.678235	4061.97
20.53418	0.68706	4115.81
20.8345	0.697091	4170.55
21.1348	0.705788	4225.04
21.4351	0.714731	4280.66
21.7354	0.72493	4333.77
22.0356	0.733978	4390.88
22.3359	0.743374	4449.1
22.63623	0.752598	4507.25
22.9365	0.762948	4563.12
23.2368	0.7729739	4615.35
23.5371	0.781468	4675.377
23.8374	0.791872	4734.248
24.1377	0.801238	4794.82
24.438	0.810775	4853.314
24.7383	0.820297	4909.92
25.0386	0.831372	4973.66
25.3389	0.839868	5033.15
25.63916	0.849971	5093.14
25.9395	0.860572	5149.92
26.2397	0.870943	5207.42
26.54	0.880775	5269.16
26.8403	0.891238	5330.44
27.1406	0.899953	5387.39
27.4409	0.91038	5449.92
27.7412	0.921077	5511.13
28.0415	0.930521	5571.25
28.3418	0.940764	5632.12
28.64209	0.950029	5692.21
28.9424	0.960147	5754.37
29.2427	0.971526	5817.64
29.543	0.980708	5875.31
29.8433	0.990686	5935.77
30.1436	1.00135	5998.3
30.4438	1.01037	6059.18
30.7441	1.02135	6120.22
31.0444	1.03095	6179.73
31.3447	1.04106	6243.12
31.64502	1.05114	6304.66
31.9453	1.06122	6363.03
32.2456	1.07203	6423.22
32.5459	1.081115	6482.58
32.8462	1.09137	6541.45
33.1465	1.100865	6603.88
33.4468	1.11242	6667.667
33.74707	1.1221	6725.84
34.0474	1.13184	6786.52
34.3477	1.14217	6847.93
34.6479	1.150766	6905.72
34.9482	1.1623	6968.56
35.2485	1.17197	7031.38
35.5488	1.18261	7089.49
35.8491	1.19168	7148.16
36.1494	1.20138	7211.44
36.4497	1.21281	7271.95
36.75	1.2226	7334.12
37.0503	1.231733	7394.42
37.3506	1.2418	7455.9
37.6509	1.251173	7513.9
37.9512	1.26069	7576.65
38.2515	1.27162	7641.61
38.5518	1.28171	7702.32
38.8521	1.290834	7759.97
39.1523	1.30172	7821.96
39.4526	1.31186	7884.6
39.75293	1.3219	7945.52
40.0532	1.33311	8008.82
40.3535	1.34137	8067.08
40.6538	1.35215	8126.02
40.9541	1.36219	8190.42
41.2544	1.37216	8252.18
41.5547	1.3826	8300.67
41.85498	1.39181	8361.72
42.1553	1.40242	8421.46
42.4556	1.41194	8480.126
42.7559	1.42089	8544.16
43.0562	1.43308	8605.45
43.3564	1.44262	8668
43.6567	1.45221	8726.23
43.957	1.46289	8786.54
44.2573	1.472798	8847.66
44.5576	1.48224	8908.4
44.85791	1.49242	8967.21
45.1582	1.50306	9028.83
45.4585	1.51138	9087.23
45.7588	1.5226	9145.667
46.0591	1.53258	9206.82
46.3594	1.54179	9269.25
46.6597	1.55298	9329.14
46.96	1.5635	9389.86
47.2603	1.57264	9450.48
47.5605	1.58328	9510.78
47.86084	1.59247	9571.52
48.1611	1.60299	9630.6
48.4614	1.612246	9693.85
48.7617	1.622501	9755.95
49.062	1.63345	9816.57
49.3623	1.64253	9877.13
49.6626	1.652348	9933.54
49.9629	1.6627	9997.71
50.2632	1.67365	10057.198
50.5635	1.68293	10113.577
50.86377	1.69356	10170.602
51.1641	1.70172	10226.467
51.4644	1.712811	10288.49
51.7646	1.72262	10340.86
52.0649	1.73364	10405.353
52.3652	1.74365	10466.147
52.6655	1.75317	10524.411
52.96582	1.76258	10585.41
53.2661	1.77245	10643.262
53.5664	1.78226	10703.565
53.8667	1.79351	10742.095
54.167	1.80453	10801.281
54.4673	1.81341	10841.313
54.7676	1.822719	10900.658
55.0679	1.8327	10956.581
55.3682	1.84263	11013.517
55.6685	1.85278	11073.512
55.96875	1.8635	11128.015
56.269	1.87221	11189.712
56.5693	1.88236	11248.294
56.8696	1.892674	11307.66
57.1699	1.90344	11366.665
57.4702	1.91248	11421.423
57.7705	1.92348	11467.03
58.0708	1.93374	11527.026
58.3711	1.94466	11558.304
58.6714	1.95441	11614.082
58.97168	1.96289	11671.064
59.272	1.97375	11692.645
59.5723	1.98299	11747.073
59.8726	1.99276	11805.557
60.1729	2.00336	11860.431
60.4731	2.01347	11917.484
60.7734	2.02303	11978.803
61.07373	2.03274	12035.803
61.374	2.04411	12084.297
61.6743	2.05356	12144.238
61.9746	2.06431	12183.082
62.2749	2.07507	12233.483
62.5752	2.08361	12247.808
62.8755	2.095768	12118.497
63.1758	2.10691	12127.785
63.4761	2.11551	12157.646
63.7764	2.12588	12162.138
64.07666	2.13528	12212.145
64.377	2.14937	11784.468
64.6772	2.1606	11755.052
64.9775	2.16978	11801.869
65.2778	2.17856	11856.214
65.5781	2.18704	11914.512
65.8784	2.19661	11953.321
66.1787	2.207166	11941.284
66.479	2.21668	11996.227
66.7793	2.227488	11954.511
67.07959	2.23683	12004.81
67.3799	2.24606	12059.143
67.6802	2.25425	12116.807
67.9805	2.264616	12174.131
68.2808	2.27378	12230.237
68.5811	2.28318	12287.044
68.8813	2.29116	12343.306
69.1816	2.30362	12397.65
69.4819	2.31348	12358.882
69.7822	2.32325	12412.573
70.08252	2.33324	12466.193
70.3828	2.3433	12524.328
70.6831	2.35411	12571.212
70.9834	2.36263	12624.328
71.2837	2.37273	12678.114
71.584	2.38224	12731.93
71.6841	2.38552	12748.314