Folder: MISC_JupyterNotebook/dublin_poster_plots/Tensile Tests - Quenched Samples 20180604/BLPX-M1-Q030-06_20180604

File: specimen.dat
MTS793|MPT|ENU|1|2|.|/|:|1|0|0|A

Data Acquisition						Time:	70.3682	s	6/4/2018 4:00:31 PM
Time	MTS 4 Displacement 4	MTS 4 Force 4
s	mm	N
0.114258	1.49012e-05	-15.6121
0.414551	0.0098139	13.7666
0.714844	0.0198096	44.2117
1.01514	0.0292271	73.1649
1.31543	0.0399917	94.8713
1.61572	0.0492394	120.996
1.91602	0.059852	144.054
2.21631	0.0701666	175.26
2.5166	0.07904768	213.565
2.81689	0.0893831	249.083
3.11719	0.09945333	282.116
3.41748	0.109556	329.4415
3.71777	0.120515	375.226
4.01807	0.129101	422.068
4.31836	0.138283	469.138
4.61865	0.148356	520.943
4.91895	0.15851	573.677
5.21924	0.168225	617.728
5.51953	0.179082	671.075
5.81982	0.188428	724.47
6.12012	0.197974	782.6048
6.42041	0.209579	841.438
6.7207	0.218642	900.576
7.021	0.229803	955.837
7.32129	0.2392143	1013.34
7.621582	0.249448	1071.66
7.921875	0.258484	1132.55
8.222168	0.269681	1195.53
8.52246	0.279814	1253.69
8.82275	0.288677	1315.673
9.12305	0.298768	1374.74
9.42334	0.308418	1433.01
9.72363	0.318965	1493.44
10.0239	0.328958	1554.799
10.3242	0.338358	1611.73
10.6245	0.348225	1672.2
10.9248	0.359941	1734.63
11.2251	0.370356	1791.04
11.5254	0.379699	1851.5
11.8257	0.388929	1912.64
12.126	0.3988862	1975.05
12.42627	0.409058	2032.99
12.7266	0.419199	2094.03
13.0269	0.428796	2157.11
13.3271	0.44049	2222.1
13.6274	0.451678	2284.2
13.9277	0.461203	2349.19
14.228	0.474545	2429.436
14.52832	0.48596	2499.28
14.8286	0.496933	2558
15.1289	0.505707	2614.02
15.4292	0.516218	2674.1
15.7295	0.525457	2732.77
16.0298	0.534672	2792.35
16.3301	0.543985	2849.4
16.6304	0.555	2907.165
16.9307	0.562957	2963.14
17.231	0.573912	3020.95
17.53125	0.583425	3080.77
17.8315	0.592461	3140.11
18.1318	0.60271	3197.696
18.4321	0.613007	3258.19
18.7324	0.621989	3317.89
19.0327	0.633192	3376.66
19.333	0.641531	3434.83
19.6333	0.652406	3496.34
19.9336	0.661823	3554.27
20.2339	0.6723702	3616.33
20.53418	0.682732	3674.18
20.8345	0.692517	3736.73
21.1348	0.702184	3802.24
21.4351	0.71249	3862.62
21.7354	0.72259	3922.5
22.0356	0.732046	3980.19
22.3359	0.742784	4042.53
22.63623	0.752234	4107.51
22.9365	0.761354	4171.15
23.2368	0.771806	4224.41
23.5371	0.7833302	4294.59
23.8374	0.792864	4352.55
24.1377	0.8023411	4415.04
24.438	0.8112967	4470.94
24.7383	0.822428	4534.72
25.0386	0.832018	4595.55
25.3389	0.842884	4658.24
25.63916	0.852272	4721.57
25.9395	0.86273	4783.34
26.2397	0.8717984	4839.99
26.54	0.882548	4904.39
26.8403	0.892174	4965.15
27.1406	0.902623	5029.188
27.4409	0.912645	5089.46
27.7412	0.92285	5151.83
28.0415	0.93281	5212.88
28.3418	0.942603	5274.01
28.64209	0.952297	5338.53
28.9424	0.962794	5398.52
29.2427	0.9722501	5460.72
29.543	0.983775	5520.71
29.8433	0.992063	5589.43
30.1436	1.00328	5652.15
30.4438	1.01261	5712.59
30.7441	1.02279	5778.36
31.0444	1.03328	5841.793
31.3447	1.04285	5905.65
31.64502	1.0542	5967.91
31.9453	1.06323	6031.78
32.2456	1.07345	6096.12
32.5459	1.08357	6159.564
32.8462	1.093787	6221.74
33.1465	1.103586	6284.23
33.4468	1.113987	6347.93
33.74707	1.12311	6407.47
34.0474	1.13381	6469.74
34.3477	1.1432	6532.46
34.6479	1.15138	6581.98
34.9482	1.16412	6661.76
35.2485	1.17404	6722.95
35.5488	1.183629	6784.6
35.8491	1.19312	6848.04
36.1494	1.204	6910.07
36.4497	1.21346	6967.99
36.75	1.22331	7028.56
37.0503	1.23386	7092.13
37.3506	1.24343	7155.71
37.6509	1.25302	7218.84
37.9512	1.26323	7282.52
38.2515	1.27258	7344.88
38.5518	1.28302	7404.84
38.8521	1.29273	7466.84
39.1523	1.30287	7530.89
39.4526	1.31337	7593.64
39.75293	1.32259	7656.6
40.0532	1.33346	7720.76
40.3535	1.34279	7784.04
40.6538	1.35304	7848.08
40.9541	1.36345	7911.48
41.2544	1.37345	7975.55
41.5547	1.38344	8037.06
41.85498	1.39332	8098.12
42.1553	1.40371	8158.31
42.4556	1.4126	8219.56
42.7559	1.42347	8287.82
43.0562	1.43326	8348.38
43.3564	1.44325	8412.39
43.6567	1.45334	8473.34
43.957	1.46293	8533.79
44.2573	1.47363	8597.33
44.5576	1.48252	8657.86
44.85791	1.49207	8725.21
45.1582	1.50396	8786.53
45.4585	1.51315	8847.832
45.7588	1.524055	8909.69
46.0591	1.53233	8972.07
46.3594	1.54391	9036.77
46.6597	1.55411	9097.88
46.96	1.563	9158.2
47.2603	1.57337	9218.91
47.5605	1.58328	9283.91
47.86084	1.59354	9346.4
48.1611	1.60379	9412.02
48.4614	1.61262	9464.54
48.7617	1.62362	9529.78
49.062	1.6334	9594.03
49.3623	1.643762	9656.61
49.6626	1.65402	9716.6
49.9629	1.66344	9777.38
50.2632	1.67428	9837.05
50.5635	1.68264	9897.73
50.86377	1.69297	9959
51.1641	1.704666	10008.957
51.4644	1.71267	10071.63
51.7646	1.7235	10133.504
52.0649	1.73352	10197.906
52.3652	1.74293	10257.914
52.6655	1.75399	10318.586
52.96582	1.76358	10354.105
53.2661	1.77326	10414.968
53.5664	1.783672	10477.499
53.8667	1.792416	10539.629
54.167	1.80302	10598.356
54.4673	1.813373	10662.632
54.7676	1.82375	10723.91
55.0679	1.83277	10785.557
55.3682	1.84329	10839.507
55.6685	1.85343	10901.104
55.96875	1.86368	10959.781
56.269	1.87304	11021.738
56.5693	1.88327	11081.157
56.8696	1.893	11140.208
57.1699	1.90269	11193.515
57.4702	1.91293	11258.167
57.7705	1.92287	11323.479
58.0708	1.93295	11379.759
58.3711	1.94492	11445.339
58.6714	1.9533	11510.89
58.97168	1.96378	11571.987
59.272	1.97332	11628.497
59.5723	1.983726	11687.047
59.8726	1.99314	11748.693
60.1729	2.00505	11811.581
60.4731	2.01363	11868.325
60.7734	2.02306	11929.651
61.07373	2.03381	11978.314
61.374	2.045217	12040.312
61.6743	2.05406	12104.381
61.9746	2.06448	12165.742
62.2749	2.07582	12082.642
62.5752	2.08496	12138.382
62.8755	2.09378	12198.786
63.1758	2.10456	12260.105
63.4761	2.11359	12304.453
63.7764	2.1247	12277.903
64.07666	2.13428	12346.828
64.377	2.14407	12400.565
64.6772	2.15281	12452.885
64.9775	2.16484	12513.751
65.2778	2.17399	12545.45
65.5781	2.18365	12604.778
65.8784	2.19499	12665.313
66.1787	2.20441	12718.298
66.479	2.213347	12778.122
66.7793	2.22366	12839.155
67.07959	2.23347	12900.023
67.3799	2.24347	12958.748
67.6802	2.25595	12593.276
67.9805	2.26635	12609.203
68.2808	2.27655	12669.056
68.5811	2.28595	12656.596
68.8813	2.297482	12286.723
69.1816	2.30954	12038.542
69.4819	2.3187	12063.906
69.7822	2.32727	12113.964
70.08252	2.33676	12163.951
70.2827	2.34333	12185.878